
# Development Desktop 2.0
# Data Export for Sensor : BMX055
# Accelerometer Sensor Mode: Normal, Bandwidth: 1000 Hz, Range: 2g
# Magnetometer Sensor Mode : Suspend, Data Output Rate: 10 Hz, Axis Remapped
# Gyroscope Sensor Mode: Normal, Bandwidth: 523Hz fs -> 2KHz, Range: 2000°/s
# Start: 02.05.2014 12:47:17
# Time Stamp , Accel X-axis - LSB, Accel Y-axis - LSB, Accel Z-axis - LSB, Gyro X-axis - Raw, Gyro Y-axis - Raw, Gyro Z-axis - Raw, 
12:47:17.9738495,    -17,0000,    -46,0000,    992,0000,    -20,0000,     24,0000,      4,0000,
12:47:17.9738495,    -13,0000,    -58,0000,    999,0000,      6,0000,    -10,0000,    -46,0000,
12:47:17.9738495,    -12,0000,    -50,0000,    995,0000,     34,0000,     14,0000,     58,0000,
12:47:17.9738495,     -9,0000,    -53,0000,   1001,0000,    -12,0000,     40,0000,    -30,0000,
12:47:17.9738495,    -19,0000,    -45,0000,   1005,0000,    -26,0000,    -82,0000,     12,0000,
12:47:17.9738495,    -11,0000,    -43,0000,   1003,0000,     -2,0000,    -40,0000,     -4,0000,
12:47:17.9738495,    -14,0000,    -51,0000,   1004,0000,     12,0000,    110,0000,    -28,0000,
12:47:17.9738495,     -9,0000,    -57,0000,    998,0000,     42,0000,    -46,0000,    -10,0000,
12:47:17.9738495,    -15,0000,    -59,0000,    997,0000,    -50,0000,     20,0000,     68,0000,
12:47:17.9738495,    -18,0000,    -54,0000,   1001,0000,     18,0000,    -28,0000,     -4,0000,
12:47:17.9738495,    -13,0000,    -49,0000,   1000,0000,     16,0000,      0,0000,    -70,0000,
12:47:17.9738495,    -11,0000,    -53,0000,    999,0000,    -24,0000,    -26,0000,     98,0000,
12:47:17.9738495,    -29,0000,    -49,0000,   1000,0000,     32,0000,    -12,0000,    -88,0000,
12:47:17.9738495,    -12,0000,    -49,0000,    995,0000,    -12,0000,    110,0000,     48,0000,
12:47:17.9738495,    -15,0000,    -46,0000,    997,0000,     12,0000,    -60,0000,      2,0000,
12:47:17.9738495,    -19,0000,    -53,0000,    997,0000,    -38,0000,     22,0000,    -18,0000,
12:47:17.9738495,    -21,0000,    -51,0000,    992,0000,     74,0000,   -100,0000,     10,0000,
12:47:17.9738495,    -16,0000,    -62,0000,   1000,0000,   -122,0000,     50,0000,    -30,0000,
12:47:17.9738495,    -10,0000,    -55,0000,    992,0000,     90,0000,     36,0000,    -32,0000,
12:47:17.9738495,     -9,0000,    -47,0000,    997,0000,    -30,0000,    -12,0000,     50,0000,
12:47:17.9838495,    -18,0000,    -60,0000,   1008,0000,    -50,0000,    -46,0000,     24,0000,
12:47:17.9838495,    -12,0000,    -55,0000,    998,0000,     78,0000,     -4,0000,     10,0000,
12:47:17.9838495,    -19,0000,    -55,0000,    998,0000,     -8,0000,    -22,0000,    -50,0000,
12:47:17.9838495,     -9,0000,    -56,0000,    997,0000,     58,0000,     10,0000,     48,0000,
12:47:17.9838495,    -14,0000,    -51,0000,    993,0000,      0,0000,     30,0000,    -42,0000,
12:47:17.9938496,    -14,0000,    -55,0000,   1003,0000,    -68,0000,    -60,0000,     28,0000,
12:47:17.9938496,    -16,0000,    -55,0000,    999,0000,     16,0000,     42,0000,    -22,0000,
12:47:17.9938496,    -14,0000,    -56,0000,    997,0000,     -4,0000,     16,0000,     42,0000,
12:47:17.9938496,    -17,0000,    -47,0000,    994,0000,     54,0000,     18,0000,    -16,0000,
12:47:17.9938496,    -19,0000,    -53,0000,    993,0000,    -36,0000,     16,0000,    -30,0000,
12:47:17.9938496,    -20,0000,    -56,0000,    999,0000,    -30,0000,    -28,0000,     38,0000,
12:47:17.9938496,    -13,0000,    -56,0000,    993,0000,    -14,0000,     22,0000,     36,0000,
12:47:17.9938496,    -13,0000,    -54,0000,    994,0000,     62,0000,     -6,0000,   -108,0000,
12:47:17.9938496,    -20,0000,    -49,0000,    998,0000,    -60,0000,    -18,0000,     58,0000,
12:47:17.9938496,    -12,0000,    -52,0000,    997,0000,     84,0000,     46,0000,    -20,0000,
12:47:17.9938496,    -10,0000,    -52,0000,    989,0000,    -78,0000,   -114,0000,     30,0000,
12:47:17.9938496,    -14,0000,    -57,0000,    986,0000,     26,0000,    110,0000,     26,0000,
12:47:17.9938496,    -16,0000,    -50,0000,    992,0000,    -42,0000,    -38,0000,    -46,0000,
12:47:17.9938496,    -15,0000,    -50,0000,   1006,0000,     80,0000,     38,0000,     -6,0000,
12:47:17.9938496,    -14,0000,    -57,0000,   1002,0000,    -50,0000,   -110,0000,     46,0000,
12:47:17.9938496,    -13,0000,    -54,0000,    999,0000,    -10,0000,     52,0000,     14,0000,
12:47:17.9938496,    -14,0000,    -57,0000,    992,0000,     52,0000,     58,0000,     30,0000,
12:47:18.0038496,    -14,0000,    -52,0000,   1007,0000,     -4,0000,    -82,0000,    -68,0000,
12:47:18.0038496,    -14,0000,    -52,0000,   1007,0000,    -82,0000,     -6,0000,     36,0000,
12:47:18.0038496,     -4,0000,    -55,0000,    994,0000,     50,0000,      8,0000,     20,0000,
12:47:18.0038496,    -20,0000,    -58,0000,   1002,0000,    -18,0000,     46,0000,    -26,0000,
12:47:18.0038496,    -12,0000,    -50,0000,    999,0000,      8,0000,    -42,0000,      4,0000,
12:47:18.0038496,    -24,0000,    -58,0000,    994,0000,     22,0000,    -20,0000,     42,0000,
12:47:18.0038496,    -14,0000,    -55,0000,    997,0000,      6,0000,      4,0000,    -58,0000,
12:47:18.0038496,    -19,0000,    -61,0000,   1001,0000,    -34,0000,     58,0000,     66,0000,
12:47:18.0038496,    -12,0000,    -52,0000,    993,0000,      4,0000,    -84,0000,    -92,0000,
12:47:18.0038496,    -21,0000,    -58,0000,    990,0000,     20,0000,     86,0000,     -2,0000,
12:47:18.0038496,    -16,0000,    -47,0000,    999,0000,    -44,0000,   -102,0000,      6,0000,
12:47:18.0038496,    -21,0000,    -59,0000,    993,0000,     10,0000,     78,0000,     46,0000,
12:47:18.0038496,     -8,0000,    -51,0000,    988,0000,    -18,0000,    -42,0000,    -44,0000,
12:47:18.0038496,    -16,0000,    -52,0000,    999,0000,      2,0000,     28,0000,     26,0000,
12:47:18.0038496,    -11,0000,    -48,0000,    998,0000,    -24,0000,    -34,0000,    -10,0000,
12:47:18.0038496,    -13,0000,    -58,0000,    997,0000,     72,0000,     62,0000,     -4,0000,
12:47:18.0038496,    -15,0000,    -49,0000,    989,0000,    -70,0000,    -58,0000,     30,0000,
12:47:18.0038496,    -23,0000,    -44,0000,    997,0000,     58,0000,     48,0000,    -40,0000,
12:47:18.0038496,    -20,0000,    -55,0000,    997,0000,    -32,0000,      4,0000,      2,0000,
12:47:18.0038496,    -13,0000,    -47,0000,    994,0000,     24,0000,    -52,0000,     92,0000,
12:47:18.0138496,    -17,0000,    -52,0000,    995,0000,     22,0000,    124,0000,    -48,0000,
12:47:18.0138496,     -9,0000,    -47,0000,    989,0000,    -58,0000,   -102,0000,    -20,0000,
12:47:18.0138496,    -17,0000,    -57,0000,    992,0000,     -6,0000,     48,0000,     74,0000,
12:47:18.0138496,    -14,0000,    -51,0000,    993,0000,    110,0000,      6,0000,    -94,0000,
12:47:18.0138496,    -18,0000,    -49,0000,   1004,0000,   -100,0000,    -42,0000,     -4,0000,
12:47:18.0138496,    -18,0000,    -55,0000,    999,0000,     10,0000,     14,0000,     78,0000,
12:47:18.0138496,    -14,0000,    -63,0000,    999,0000,    -20,0000,     82,0000,     -6,0000,
12:47:18.0138496,    -12,0000,    -57,0000,   1002,0000,     22,0000,      6,0000,    -46,0000,
12:47:18.0138496,    -16,0000,    -56,0000,    998,0000,     32,0000,    -88,0000,     56,0000,
12:47:18.0138496,    -15,0000,    -54,0000,   1000,0000,    -70,0000,    -42,0000,    -10,0000,
12:47:18.0138496,    -13,0000,    -51,0000,    997,0000,     62,0000,     38,0000,    -52,0000,
12:47:18.0138496,    -14,0000,    -52,0000,   1000,0000,    -30,0000,     -2,0000,     46,0000,
12:47:18.0138496,    -19,0000,    -51,0000,    993,0000,    -18,0000,    -28,0000,    -44,0000,
12:47:18.0138496,    -15,0000,    -60,0000,    998,0000,     54,0000,    118,0000,     30,0000,
12:47:18.0138496,    -16,0000,    -57,0000,   1008,0000,    -12,0000,    -80,0000,     30,0000,
12:47:18.0138496,    -10,0000,    -57,0000,   1009,0000,    -22,0000,     88,0000,    -94,0000,
12:47:18.0138496,    -15,0000,    -57,0000,   1001,0000,      2,0000,    -96,0000,     80,0000,
12:47:18.0138496,    -16,0000,    -49,0000,    995,0000,     10,0000,     50,0000,     32,0000,
12:47:18.0138496,     -9,0000,    -55,0000,   1005,0000,      6,0000,     -8,0000,    -20,0000,
12:47:18.0138496,    -16,0000,    -49,0000,    996,0000,    -34,0000,    -54,0000,     -6,0000,
12:47:18.0138496,    -16,0000,    -46,0000,    997,0000,    -34,0000,     48,0000,     -2,0000,
12:47:18.0238496,    -16,0000,    -47,0000,   1001,0000,     72,0000,    -40,0000,     16,0000,
12:47:18.0238496,    -24,0000,    -48,0000,   1001,0000,    -66,0000,     50,0000,    -32,0000,
12:47:18.0238496,    -17,0000,    -41,0000,    994,0000,     32,0000,    -40,0000,    -32,0000,
12:47:18.0238496,    -23,0000,    -54,0000,    996,0000,      6,0000,      4,0000,      6,0000,
12:47:18.0238496,    -21,0000,    -47,0000,    995,0000,    -18,0000,    -22,0000,     86,0000,
12:47:18.0238496,     -8,0000,    -51,0000,   1002,0000,     56,0000,     38,0000,   -110,0000,
12:47:18.0238496,    -12,0000,    -56,0000,    998,0000,    -14,0000,     50,0000,     70,0000,
12:47:18.0238496,    -14,0000,    -59,0000,    999,0000,    -12,0000,    -42,0000,    106,0000,
12:47:18.0238496,    -17,0000,    -50,0000,    986,0000,     24,0000,     -8,0000,   -150,0000,
12:47:18.0238496,    -10,0000,    -46,0000,   1000,0000,   -100,0000,    -18,0000,     52,0000,
12:47:18.0238496,    -18,0000,    -49,0000,   1004,0000,     74,0000,    -28,0000,     30,0000,
12:47:18.0238496,    -19,0000,    -56,0000,    997,0000,     -4,0000,     36,0000,     18,0000,
12:47:18.0238496,    -18,0000,    -50,0000,   1003,0000,    -20,0000,    -26,0000,    -96,0000,
12:47:18.0238496,    -13,0000,    -56,0000,    996,0000,     46,0000,    -22,0000,     60,0000,
12:47:18.0238496,    -18,0000,    -55,0000,    996,0000,    -92,0000,    -54,0000,     58,0000,
12:47:18.0338496,    -16,0000,    -57,0000,    994,0000,     48,0000,     38,0000,    -34,0000,
12:47:18.0338496,    -12,0000,    -52,0000,   1000,0000,    -18,0000,     42,0000,     38,0000,
12:47:18.0338496,    -25,0000,    -62,0000,    992,0000,     16,0000,    -46,0000,     24,0000,
12:47:18.0338496,    -17,0000,    -46,0000,    992,0000,     66,0000,    112,0000,    -46,0000,
12:47:18.0338496,     -9,0000,    -51,0000,    996,0000,    -78,0000,    -60,0000,     62,0000,
12:47:18.0338496,    -20,0000,    -48,0000,    993,0000,    -20,0000,     26,0000,   -110,0000,
12:47:18.0338496,    -17,0000,    -52,0000,    994,0000,     76,0000,     18,0000,     44,0000,
12:47:18.0338496,    -13,0000,    -47,0000,    999,0000,    -20,0000,    -56,0000,     32,0000,
12:47:18.0338496,    -26,0000,    -47,0000,    994,0000,    -60,0000,     90,0000,    -82,0000,
12:47:18.0438496,    -11,0000,    -53,0000,    993,0000,     26,0000,    -26,0000,    -18,0000,
12:47:18.0438496,    -12,0000,    -59,0000,    997,0000,      6,0000,     14,0000,     88,0000,
12:47:18.0438496,    -17,0000,    -53,0000,   1001,0000,    -30,0000,    -36,0000,      6,0000,
12:47:18.0438496,    -19,0000,    -53,0000,   1000,0000,     20,0000,    -20,0000,   -122,0000,
12:47:18.0438496,    -19,0000,    -57,0000,    998,0000,   -112,0000,     16,0000,    150,0000,
12:47:18.0438496,    -11,0000,    -55,0000,    994,0000,     90,0000,    -14,0000,    -68,0000,
12:47:18.0438496,    -17,0000,    -55,0000,    996,0000,    -32,0000,      8,0000,    -18,0000,
12:47:18.0438496,     -9,0000,    -41,0000,    990,0000,     52,0000,      4,0000,     10,0000,
12:47:18.0438496,    -19,0000,    -47,0000,    996,0000,     -4,0000,     10,0000,     50,0000,
12:47:18.0438496,    -17,0000,    -61,0000,    996,0000,    -38,0000,     22,0000,    -78,0000,
12:47:18.0438496,    -10,0000,    -53,0000,   1004,0000,     20,0000,    -60,0000,    -26,0000,
12:47:18.0438496,    -12,0000,    -49,0000,    999,0000,    -38,0000,     58,0000,    120,0000,
12:47:18.0438496,    -16,0000,    -57,0000,   1003,0000,     68,0000,    -54,0000,    -32,0000,
12:47:18.0438496,    -16,0000,    -45,0000,    991,0000,    -62,0000,     34,0000,    -62,0000,
12:47:18.0438496,    -13,0000,    -56,0000,    989,0000,      6,0000,     22,0000,     42,0000,
12:47:18.0438496,     -7,0000,    -59,0000,    994,0000,    -10,0000,     12,0000,    -38,0000,
12:47:18.0438496,    -12,0000,    -55,0000,   1002,0000,     30,0000,     -8,0000,    -10,0000,
12:47:18.0438496,    -12,0000,    -50,0000,    997,0000,     16,0000,      8,0000,     88,0000,
12:47:18.0438496,    -16,0000,    -49,0000,    998,0000,     -8,0000,    -46,0000,   -108,0000,
12:47:18.0438496,    -17,0000,    -59,0000,    998,0000,     -4,0000,     72,0000,    114,0000,
12:47:18.0438496,    -18,0000,    -59,0000,   1003,0000,     14,0000,    -74,0000,    -42,0000,
12:47:18.0438496,    -16,0000,    -52,0000,    999,0000,    -66,0000,     70,0000,    -32,0000,
12:47:18.0438496,    -10,0000,    -54,0000,   1007,0000,     92,0000,    -54,0000,     40,0000,
12:47:18.0438496,    -10,0000,    -51,0000,   1007,0000,     22,0000,     40,0000,    -36,0000,
12:47:18.0438496,    -11,0000,    -48,0000,    995,0000,    -50,0000,      4,0000,     92,0000,
12:47:18.0438496,    -18,0000,    -49,0000,    991,0000,    -24,0000,     -4,0000,    -38,0000,
12:47:18.0438496,    -13,0000,    -43,0000,    997,0000,    -10,0000,     30,0000,      0,0000,
12:47:18.0438496,    -20,0000,    -53,0000,    993,0000,     24,0000,    -34,0000,     50,0000,
12:47:18.0438496,    -17,0000,    -49,0000,    987,0000,    -20,0000,     38,0000,   -126,0000,
12:47:18.0438496,    -20,0000,    -54,0000,    990,0000,     22,0000,    -60,0000,    150,0000,
12:47:18.0438496,    -21,0000,    -57,0000,    995,0000,    -22,0000,     66,0000,    -62,0000,
12:47:18.0438496,    -13,0000,    -56,0000,   1006,0000,     22,0000,    -32,0000,     24,0000,
12:47:18.0438496,    -14,0000,    -51,0000,    996,0000,     -4,0000,     26,0000,    -58,0000,
12:47:18.0438496,    -16,0000,    -48,0000,    991,0000,      4,0000,    -54,0000,     28,0000,
12:47:18.0538496,    -16,0000,    -47,0000,    991,0000,     44,0000,     42,0000,    -10,0000,
12:47:18.0538496,    -18,0000,    -49,0000,    999,0000,    -44,0000,    -46,0000,     66,0000,
12:47:18.0538496,    -10,0000,    -51,0000,    995,0000,    -44,0000,     40,0000,    -52,0000,
12:47:18.0538496,    -16,0000,    -54,0000,   1000,0000,    108,0000,    -32,0000,    -22,0000,
12:47:18.0538496,    -14,0000,    -53,0000,   1001,0000,    -94,0000,     42,0000,      8,0000,
12:47:18.0538496,    -11,0000,    -46,0000,   1004,0000,     12,0000,      8,0000,     52,0000,
12:47:18.0538496,    -17,0000,    -54,0000,   1004,0000,    -22,0000,    -58,0000,    -52,0000,
12:47:18.0538496,    -19,0000,    -55,0000,    996,0000,      2,0000,     42,0000,     60,0000,
12:47:18.0538496,    -17,0000,    -49,0000,    994,0000,     50,0000,    -46,0000,    -42,0000,
12:47:18.0538496,    -19,0000,    -49,0000,    998,0000,     -4,0000,     26,0000,    -24,0000,
12:47:18.0538496,    -16,0000,    -58,0000,   1005,0000,      8,0000,     -2,0000,     -6,0000,
12:47:18.0538496,    -17,0000,    -56,0000,    999,0000,     22,0000,     40,0000,     92,0000,
12:47:18.0538496,    -20,0000,    -60,0000,    998,0000,    -14,0000,    -40,0000,   -132,0000,
12:47:18.0538496,    -16,0000,    -54,0000,   1001,0000,    -12,0000,    -30,0000,     84,0000,
12:47:18.0638497,    -16,0000,    -56,0000,    995,0000,     70,0000,    124,0000,    -72,0000,
12:47:18.0638497,    -12,0000,    -49,0000,    994,0000,     -4,0000,    -22,0000,    108,0000,
12:47:18.0638497,    -16,0000,    -55,0000,    996,0000,    -86,0000,   -100,0000,    -48,0000,
12:47:18.0638497,    -18,0000,    -48,0000,    992,0000,     44,0000,     78,0000,     30,0000,
12:47:18.0638497,     -8,0000,    -45,0000,   1003,0000,      2,0000,   -136,0000,    -12,0000,
12:47:18.0638497,    -18,0000,    -54,0000,    991,0000,    -10,0000,     90,0000,     44,0000,
12:47:18.0638497,    -13,0000,    -56,0000,    999,0000,     54,0000,    -36,0000,    -44,0000,
12:47:18.0638497,    -17,0000,    -56,0000,    996,0000,    -30,0000,      2,0000,    -18,0000,
12:47:18.0638497,    -18,0000,    -53,0000,    994,0000,     18,0000,     -8,0000,     20,0000,
12:47:18.0638497,    -16,0000,    -55,0000,    994,0000,      8,0000,    -24,0000,     24,0000,
12:47:18.0638497,    -17,0000,    -55,0000,   1004,0000,    -18,0000,    -30,0000,     -8,0000,
12:47:18.0638497,    -18,0000,    -48,0000,   1003,0000,     -2,0000,      8,0000,     -2,0000,
12:47:18.0638497,    -16,0000,    -47,0000,    995,0000,     16,0000,     38,0000,    -50,0000,
12:47:18.0638497,    -12,0000,    -53,0000,   1000,0000,     36,0000,    -22,0000,     60,0000,
12:47:18.0638497,    -26,0000,    -54,0000,   1004,0000,    -52,0000,    -54,0000,    -54,0000,
12:47:18.0638497,     -9,0000,    -48,0000,    994,0000,     40,0000,      0,0000,     18,0000,
12:47:18.0638497,    -13,0000,    -56,0000,   1000,0000,    -62,0000,     26,0000,      0,0000,
12:47:18.0638497,    -16,0000,    -49,0000,   1002,0000,     58,0000,     16,0000,     -8,0000,
12:47:18.0638497,    -14,0000,    -49,0000,    997,0000,    -14,0000,    -12,0000,     64,0000,
12:47:18.0738497,    -18,0000,    -56,0000,   1000,0000,     46,0000,    -34,0000,     -6,0000,
12:47:18.0738497,    -19,0000,    -47,0000,   1003,0000,    -30,0000,      0,0000,     22,0000,
12:47:18.0738497,    -17,0000,    -50,0000,   1005,0000,     22,0000,      8,0000,    -62,0000,
12:47:18.0738497,     -5,0000,    -55,0000,   1001,0000,    -14,0000,     20,0000,     24,0000,
12:47:18.0738497,    -14,0000,    -52,0000,   1002,0000,     -4,0000,    -40,0000,     26,0000,
12:47:18.0738497,    -18,0000,    -52,0000,    995,0000,     -2,0000,      6,0000,    -90,0000,
12:47:18.0738497,    -15,0000,    -54,0000,    997,0000,    -32,0000,     12,0000,     60,0000,
12:47:18.0738497,    -12,0000,    -56,0000,    995,0000,     10,0000,    -10,0000,    -18,0000,
12:47:18.0738497,    -14,0000,    -55,0000,    994,0000,     10,0000,     10,0000,     34,0000,
12:47:18.0738497,    -19,0000,    -56,0000,   1001,0000,     22,0000,    -38,0000,      6,0000,
12:47:18.0738497,    -13,0000,    -60,0000,    998,0000,    -46,0000,     76,0000,      0,0000,
12:47:18.0738497,    -19,0000,    -52,0000,    993,0000,    -68,0000,    -74,0000,    -30,0000,
12:47:18.0738497,    -15,0000,    -57,0000,    995,0000,    102,0000,     54,0000,     38,0000,
12:47:18.0738497,    -20,0000,    -56,0000,   1001,0000,     40,0000,    -86,0000,    -18,0000,
12:47:18.0738497,    -15,0000,    -55,0000,   1002,0000,     40,0000,    -86,0000,    -18,0000,
12:47:18.0738497,    -17,0000,    -59,0000,   1001,0000,     26,0000,     54,0000,     28,0000,
12:47:18.0738497,    -16,0000,    -57,0000,    996,0000,     -4,0000,   -100,0000,     -2,0000,
12:47:18.0738497,    -19,0000,    -56,0000,    992,0000,    -24,0000,     44,0000,    -24,0000,
12:47:18.0738497,    -12,0000,    -53,0000,    990,0000,     48,0000,      6,0000,      4,0000,
12:47:18.0738497,    -13,0000,    -46,0000,   1004,0000,     48,0000,      6,0000,      4,0000,
12:47:18.0738497,    -13,0000,    -50,0000,    992,0000,    -16,0000,     -2,0000,     18,0000,
12:47:18.0738497,    -10,0000,    -59,0000,   1004,0000,    -30,0000,    -40,0000,     20,0000,
12:47:18.0738497,    -18,0000,    -54,0000,   1000,0000,     58,0000,     56,0000,     12,0000,
12:47:18.0738497,     -8,0000,    -56,0000,    992,0000,    -36,0000,    -10,0000,    -48,0000,
12:47:18.0738497,    -18,0000,    -55,0000,    988,0000,    -36,0000,    -10,0000,    -48,0000,
12:47:18.0738497,    -14,0000,    -46,0000,    992,0000,     22,0000,    118,0000,    -18,0000,
12:47:18.0738497,    -18,0000,    -50,0000,    998,0000,    -34,0000,    -60,0000,    -12,0000,
12:47:18.0738497,    -15,0000,    -58,0000,   1002,0000,     54,0000,     46,0000,     30,0000,
12:47:18.0738497,    -17,0000,    -56,0000,   1000,0000,      6,0000,    -64,0000,    -36,0000,
12:47:18.0838497,    -13,0000,    -50,0000,    995,0000,      6,0000,    -64,0000,    -36,0000,
12:47:18.0838497,    -14,0000,    -59,0000,    994,0000,     28,0000,     22,0000,    -60,0000,
12:47:18.0838497,    -23,0000,    -51,0000,   1004,0000,    -40,0000,      8,0000,     66,0000,
12:47:18.0838497,    -10,0000,    -42,0000,    993,0000,     12,0000,    -52,0000,     56,0000,
12:47:18.0838497,     -6,0000,    -53,0000,   1004,0000,     42,0000,     58,0000,    -86,0000,
12:47:18.0838497,    -13,0000,    -47,0000,   1004,0000,     42,0000,     58,0000,    -86,0000,
12:47:18.0838497,    -23,0000,    -55,0000,    996,0000,     12,0000,     42,0000,    -24,0000,
12:47:18.0838497,    -14,0000,    -51,0000,   1001,0000,    -54,0000,     -4,0000,     40,0000,
12:47:18.0938497,     -9,0000,    -53,0000,   1001,0000,     16,0000,    -46,0000,      2,0000,
12:47:18.0938497,    -13,0000,    -49,0000,   1002,0000,    -20,0000,     86,0000,    -30,0000,
12:47:18.0938497,    -14,0000,    -55,0000,   1001,0000,    -20,0000,     86,0000,    -30,0000,
12:47:18.0938497,    -17,0000,    -60,0000,   1001,0000,     -2,0000,     74,0000,      0,0000,
12:47:18.0938497,     -8,0000,    -53,0000,   1002,0000,    -26,0000,   -106,0000,     42,0000,
12:47:18.0938497,    -10,0000,    -53,0000,   1009,0000,     -8,0000,      4,0000,    -10,0000,
12:47:18.0938497,    -15,0000,    -56,0000,   1001,0000,     16,0000,     34,0000,     30,0000,
12:47:18.0938497,    -15,0000,    -53,0000,   1008,0000,     16,0000,     34,0000,     30,0000,
12:47:18.0938497,    -16,0000,    -57,0000,    992,0000,    -46,0000,    -20,0000,     64,0000,
12:47:18.0938497,    -17,0000,    -51,0000,    997,0000,      0,0000,     32,0000,    -50,0000,
12:47:18.0938497,    -20,0000,    -43,0000,    997,0000,      0,0000,    -18,0000,     26,0000,
12:47:18.0938497,    -20,0000,    -52,0000,    996,0000,    -26,0000,     82,0000,    -42,0000,
12:47:18.0938497,    -13,0000,    -51,0000,   1004,0000,    -26,0000,     82,0000,    -42,0000,
12:47:18.0938497,    -17,0000,    -46,0000,    999,0000,     52,0000,     68,0000,    -30,0000,
12:47:18.0938497,    -17,0000,    -56,0000,    999,0000,    -26,0000,      8,0000,     10,0000,
12:47:18.0938497,    -13,0000,    -55,0000,   1001,0000,     34,0000,    -12,0000,      2,0000,
12:47:18.0938497,    -17,0000,    -51,0000,    995,0000,    -76,0000,     14,0000,     46,0000,
12:47:18.0938497,    -19,0000,    -58,0000,    998,0000,    -76,0000,     14,0000,     46,0000,
12:47:18.0938497,    -16,0000,    -52,0000,    995,0000,     22,0000,    -26,0000,    -20,0000,
12:47:18.0938497,     -6,0000,    -58,0000,    995,0000,    -32,0000,    -10,0000,      8,0000,
12:47:18.0938497,    -14,0000,    -55,0000,    995,0000,    -28,0000,    -48,0000,      6,0000,
12:47:18.0938497,    -20,0000,    -57,0000,   1005,0000,     26,0000,     84,0000,     56,0000,
12:47:18.0938497,    -18,0000,    -51,0000,   1004,0000,     26,0000,     84,0000,     56,0000,
12:47:18.0938497,    -13,0000,    -47,0000,    991,0000,    -26,0000,    -42,0000,    -28,0000,
12:47:18.0938497,    -17,0000,    -53,0000,    994,0000,     68,0000,     60,0000,     -8,0000,
12:47:18.0938497,    -17,0000,    -49,0000,    997,0000,    -78,0000,   -118,0000,     62,0000,
12:47:18.0938497,    -13,0000,    -62,0000,    991,0000,     -4,0000,     56,0000,    -16,0000,
12:47:18.0938497,    -17,0000,    -51,0000,    997,0000,     -4,0000,     56,0000,    -16,0000,
12:47:18.0938497,    -12,0000,    -56,0000,    998,0000,    -44,0000,    -76,0000,     84,0000,
12:47:18.0938497,    -10,0000,    -48,0000,   1000,0000,     44,0000,     40,0000,    -66,0000,
12:47:18.0938497,    -11,0000,    -56,0000,    996,0000,     90,0000,    -12,0000,    -40,0000,
12:47:18.0938497,    -13,0000,    -51,0000,    990,0000,    -68,0000,     58,0000,    100,0000,
12:47:18.0938497,    -13,0000,    -51,0000,    990,0000,    -68,0000,     58,0000,    100,0000,
12:47:18.0938497,    -18,0000,    -61,0000,    999,0000,    -14,0000,     36,0000,    -26,0000,
12:47:18.0938497,    -24,0000,    -56,0000,    998,0000,    -16,0000,     94,0000,      0,0000,
12:47:18.0938497,    -21,0000,    -54,0000,   1002,0000,     18,0000,   -156,0000,     94,0000,
12:47:18.0938497,    -23,0000,    -54,0000,    996,0000,    -14,0000,     28,0000,    -74,0000,
12:47:18.0938497,    -14,0000,    -57,0000,   1001,0000,    -14,0000,     28,0000,    -74,0000,
12:47:18.0938497,    -17,0000,    -62,0000,    995,0000,      0,0000,    -34,0000,   -100,0000,
12:47:18.0938497,    -20,0000,    -52,0000,    995,0000,    -44,0000,     34,0000,     36,0000,
12:47:18.0938497,    -19,0000,    -57,0000,   1005,0000,      0,0000,     26,0000,     28,0000,
12:47:18.1038497,    -18,0000,    -53,0000,    995,0000,     22,0000,    -72,0000,    -26,0000,
12:47:18.1038497,     -8,0000,    -54,0000,   1009,0000,     22,0000,    -72,0000,    -26,0000,
12:47:18.1038497,    -24,0000,    -57,0000,   1007,0000,    -44,0000,    -44,0000,    120,0000,
12:47:18.1038497,    -18,0000,    -56,0000,    997,0000,     78,0000,     46,0000,    -56,0000,
12:47:18.1038497,    -16,0000,    -49,0000,    990,0000,    -90,0000,     24,0000,     98,0000,
12:47:18.1038497,    -23,0000,    -51,0000,   1001,0000,     82,0000,    -70,0000,   -106,0000,
12:47:18.1038497,    -12,0000,    -45,0000,   1003,0000,     82,0000,    -70,0000,   -106,0000,
12:47:18.1038497,    -15,0000,    -56,0000,    991,0000,     38,0000,    -12,0000,    -72,0000,
12:47:18.1038497,    -12,0000,    -50,0000,    991,0000,    -24,0000,     14,0000,    108,0000,
12:47:18.1038497,    -15,0000,    -56,0000,    996,0000,     16,0000,      2,0000,   -110,0000,
12:47:18.1038497,     -9,0000,    -52,0000,   1006,0000,     -4,0000,     20,0000,    -20,0000,
12:47:18.1038497,    -19,0000,    -54,0000,   1002,0000,     -4,0000,     20,0000,    -20,0000,
12:47:18.1038497,    -15,0000,    -53,0000,    999,0000,    -46,0000,     42,0000,    -40,0000,
12:47:18.1038497,    -15,0000,    -53,0000,    999,0000,    -14,0000,    -40,0000,     44,0000,
12:47:18.1038497,    -10,0000,    -51,0000,    996,0000,     52,0000,    -12,0000,     28,0000,
12:47:18.1038497,    -18,0000,    -57,0000,   1002,0000,     -6,0000,     34,0000,     28,0000,
12:47:18.1038497,    -16,0000,    -61,0000,    992,0000,     -6,0000,     34,0000,     28,0000,
12:47:18.1038497,    -15,0000,    -53,0000,    997,0000,     24,0000,      2,0000,     16,0000,
12:47:18.1038497,    -13,0000,    -54,0000,   1000,0000,    -58,0000,    -56,0000,      2,0000,
12:47:18.1038497,    -23,0000,    -54,0000,    993,0000,      2,0000,     36,0000,    -12,0000,
12:47:18.1038497,    -22,0000,    -52,0000,   1000,0000,      2,0000,     36,0000,    -12,0000,
12:47:18.1038497,    -11,0000,    -50,0000,   1003,0000,     32,0000,     48,0000,     36,0000,
12:47:18.1038497,    -17,0000,    -50,0000,   1000,0000,     -8,0000,     34,0000,    -40,0000,
12:47:18.1038497,    -16,0000,    -54,0000,    994,0000,    -16,0000,    -48,0000,     28,0000,
12:47:18.1038497,    -15,0000,    -61,0000,    996,0000,    -16,0000,    -48,0000,     28,0000,
12:47:18.1038497,    -11,0000,    -52,0000,    997,0000,    -70,0000,     -4,0000,     24,0000,
12:47:18.1038497,    -17,0000,    -59,0000,    999,0000,    -70,0000,     -4,0000,     24,0000,
12:47:18.1038497,    -15,0000,    -50,0000,   1001,0000,     30,0000,    -74,0000,    -52,0000,
12:47:18.1038497,    -18,0000,    -52,0000,    996,0000,     12,0000,     90,0000,    100,0000,
12:47:18.1038497,    -19,0000,    -50,0000,   1004,0000,    -44,0000,    -24,0000,     16,0000,
12:47:18.1038497,    -14,0000,    -44,0000,   1003,0000,    -14,0000,    -38,0000,      6,0000,
12:47:18.1038497,    -11,0000,    -51,0000,    997,0000,     76,0000,     30,0000,   -102,0000,
12:47:18.1038497,    -12,0000,    -51,0000,   1001,0000,    -56,0000,      8,0000,     60,0000,
12:47:18.1038497,    -16,0000,    -51,0000,   1004,0000,     18,0000,     60,0000,      8,0000,
12:47:18.1038497,    -21,0000,    -55,0000,   1000,0000,     12,0000,    -68,0000,    -30,0000,
12:47:18.1138497,    -21,0000,    -55,0000,   1000,0000,     62,0000,      6,0000,     62,0000,
12:47:18.1138497,    -13,0000,    -52,0000,    998,0000,   -142,0000,     30,0000,    -62,0000,
12:47:18.1138497,    -18,0000,    -48,0000,    998,0000,     98,0000,    -40,0000,     30,0000,
12:47:18.1138497,    -19,0000,    -54,0000,    995,0000,    -14,0000,     86,0000,    -24,0000,
12:47:18.1138497,    -11,0000,    -60,0000,    998,0000,    -12,0000,   -132,0000,    -16,0000,
12:47:18.1138497,    -15,0000,    -51,0000,    988,0000,     20,0000,     42,0000,     38,0000,
12:47:18.1138497,    -20,0000,    -56,0000,    997,0000,     10,0000,     44,0000,    -54,0000,
12:47:18.1138497,    -14,0000,    -49,0000,   1001,0000,     -8,0000,    -36,0000,     90,0000,
12:47:18.1138497,    -16,0000,    -48,0000,   1000,0000,      6,0000,      2,0000,     -6,0000,
12:47:18.1138497,    -14,0000,    -52,0000,    995,0000,     52,0000,      4,0000,     26,0000,
12:47:18.1138497,    -18,0000,    -55,0000,    997,0000,    -34,0000,    -18,0000,    -78,0000,
12:47:18.1138497,    -11,0000,    -49,0000,    993,0000,      4,0000,    -16,0000,    120,0000,
12:47:18.1138497,    -17,0000,    -54,0000,    992,0000,    -50,0000,    -80,0000,     70,0000,
12:47:18.1138497,    -13,0000,    -62,0000,    996,0000,    -50,0000,    -80,0000,     70,0000,
12:47:18.1138497,    -14,0000,    -52,0000,   1004,0000,     40,0000,    116,0000,    -48,0000,
12:47:18.1138497,    -17,0000,    -52,0000,    998,0000,    -30,0000,    -40,0000,     70,0000,
12:47:18.1138497,    -11,0000,    -47,0000,    994,0000,     28,0000,     62,0000,   -102,0000,
12:47:18.1238497,    -16,0000,    -46,0000,   1002,0000,    -62,0000,   -128,0000,    106,0000,
12:47:18.1238497,    -16,0000,    -52,0000,   1000,0000,     74,0000,     96,0000,     16,0000,
12:47:18.1238497,    -27,0000,    -54,0000,   1005,0000,    -24,0000,     -4,0000,     -4,0000,
12:47:18.1238497,     -7,0000,    -56,0000,   1004,0000,     26,0000,     12,0000,    -62,0000,
12:47:18.1238497,    -14,0000,    -51,0000,    993,0000,    -12,0000,    -60,0000,     44,0000,
12:47:18.1238497,    -16,0000,    -51,0000,    997,0000,    -12,0000,     82,0000,    -10,0000,
12:47:18.1238497,    -22,0000,    -60,0000,   1002,0000,     72,0000,     -2,0000,     -8,0000,
12:47:18.1238497,    -13,0000,    -50,0000,   1000,0000,    -34,0000,    -72,0000,     18,0000,
12:47:18.1238497,    -11,0000,    -55,0000,    998,0000,    -18,0000,    -12,0000,     50,0000,
12:47:18.1238497,    -12,0000,    -54,0000,   1002,0000,    -36,0000,     56,0000,    -30,0000,
12:47:18.1238497,    -16,0000,    -58,0000,    996,0000,     18,0000,    -24,0000,     28,0000,
12:47:18.1238497,    -10,0000,    -57,0000,    998,0000,    -10,0000,     28,0000,      6,0000,
12:47:18.1238497,    -15,0000,    -55,0000,    996,0000,     42,0000,    -40,0000,    -28,0000,
12:47:18.1238497,    -15,0000,    -53,0000,    992,0000,    -20,0000,    -66,0000,     44,0000,
12:47:18.1238497,    -23,0000,    -57,0000,    999,0000,     -4,0000,     12,0000,    -74,0000,
12:47:18.1238497,    -17,0000,    -62,0000,    999,0000,     36,0000,    -12,0000,     32,0000,
12:47:18.1238497,    -13,0000,    -45,0000,   1000,0000,      4,0000,     78,0000,    -12,0000,
12:47:18.1238497,    -15,0000,    -58,0000,    992,0000,    -50,0000,    -80,0000,     42,0000,
12:47:18.1238497,    -17,0000,    -57,0000,   1001,0000,    -24,0000,      0,0000,      2,0000,
12:47:18.1238497,    -17,0000,    -47,0000,   1000,0000,     14,0000,    -28,0000,    -10,0000,
12:47:18.1238497,    -12,0000,    -46,0000,    995,0000,      0,0000,     -6,0000,     -8,0000,
12:47:18.1238497,    -16,0000,    -51,0000,    997,0000,     52,0000,     -2,0000,      2,0000,
12:47:18.1338498,    -14,0000,    -52,0000,   1001,0000,    -26,0000,     16,0000,     50,0000,
12:47:18.1338498,    -21,0000,    -47,0000,    994,0000,     26,0000,     48,0000,    -90,0000,
12:47:18.1338498,    -11,0000,    -52,0000,    992,0000,     16,0000,    -26,0000,    108,0000,
12:47:18.1338498,    -19,0000,    -50,0000,    990,0000,    -44,0000,    -16,0000,    -94,0000,
12:47:18.1338498,    -14,0000,    -55,0000,    994,0000,     10,0000,     18,0000,     86,0000,
12:47:18.1338498,    -16,0000,    -57,0000,    987,0000,     -6,0000,     26,0000,      8,0000,
12:47:18.1338498,    -14,0000,    -54,0000,   1003,0000,     68,0000,     24,0000,   -108,0000,
12:47:18.1338498,    -19,0000,    -57,0000,   1000,0000,   -120,0000,   -102,0000,    116,0000,
12:47:18.1338498,    -15,0000,    -59,0000,    996,0000,     68,0000,     -6,0000,    -96,0000,
12:47:18.1338498,    -13,0000,    -53,0000,    999,0000,     -6,0000,     74,0000,      2,0000,
12:47:18.1338498,    -14,0000,    -49,0000,   1000,0000,      6,0000,     16,0000,     66,0000,
12:47:18.1338498,    -10,0000,    -56,0000,   1001,0000,     38,0000,    -58,0000,    -56,0000,
12:47:18.1338498,    -21,0000,    -49,0000,    999,0000,    -40,0000,    -36,0000,     60,0000,
12:47:18.1338498,    -15,0000,    -46,0000,    997,0000,     14,0000,      8,0000,    -64,0000,
12:47:18.1338498,    -18,0000,    -53,0000,   1001,0000,      0,0000,    -52,0000,    -34,0000,
12:47:18.1338498,    -14,0000,    -59,0000,    996,0000,      0,0000,    -52,0000,    -34,0000,
12:47:18.1338498,    -15,0000,    -56,0000,    997,0000,    -62,0000,    -10,0000,     56,0000,
12:47:18.1338498,     -9,0000,    -61,0000,    997,0000,     42,0000,     54,0000,    -32,0000,
12:47:18.1338498,    -20,0000,    -52,0000,    998,0000,    -16,0000,    -38,0000,    -78,0000,
12:47:18.1338498,    -13,0000,    -55,0000,    987,0000,     50,0000,     58,0000,     68,0000,
12:47:18.1338498,    -19,0000,    -51,0000,    998,0000,    -44,0000,    -54,0000,    -60,0000,
12:47:18.1338498,    -23,0000,    -51,0000,   1002,0000,     -4,0000,     14,0000,    102,0000,
12:47:18.1338498,    -12,0000,    -57,0000,    999,0000,      0,0000,     14,0000,    -56,0000,
12:47:18.1338498,    -13,0000,    -51,0000,   1003,0000,     20,0000,    -26,0000,     50,0000,
12:47:18.1438498,    -19,0000,    -51,0000,   1002,0000,    -26,0000,     42,0000,    -78,0000,
12:47:18.1438498,    -10,0000,    -52,0000,    999,0000,      0,0000,     32,0000,     86,0000,
12:47:18.1438498,    -16,0000,    -52,0000,    994,0000,    -32,0000,    -42,0000,     34,0000,
12:47:18.1438498,    -11,0000,    -50,0000,    992,0000,     22,0000,    -28,0000,    -56,0000,
12:47:18.1438498,    -20,0000,    -51,0000,    998,0000,     74,0000,      0,0000,    -44,0000,
12:47:18.1438498,    -12,0000,    -54,0000,    990,0000,   -100,0000,     -6,0000,     88,0000,
12:47:18.1438498,    -18,0000,    -55,0000,    996,0000,     52,0000,     58,0000,    -58,0000,
12:47:18.1438498,    -19,0000,    -56,0000,    989,0000,    -52,0000,   -102,0000,    108,0000,
12:47:18.1438498,    -15,0000,    -59,0000,    995,0000,    108,0000,     72,0000,   -184,0000,
12:47:18.1438498,    -14,0000,    -50,0000,    989,0000,    -62,0000,    -54,0000,    152,0000,
12:47:18.1438498,    -12,0000,    -56,0000,   1000,0000,    -38,0000,     82,0000,    -52,0000,
12:47:18.1438498,    -13,0000,    -57,0000,    991,0000,     42,0000,    -54,0000,     32,0000,
12:47:18.1438498,    -12,0000,    -46,0000,    990,0000,     -6,0000,     44,0000,    -44,0000,
12:47:18.1438498,    -17,0000,    -56,0000,    999,0000,      0,0000,      2,0000,      4,0000,
12:47:18.1438498,    -12,0000,    -51,0000,    993,0000,    -32,0000,    -46,0000,     84,0000,
12:47:18.1438498,    -15,0000,    -53,0000,    999,0000,    -40,0000,     56,0000,    -64,0000,
12:47:18.1438498,    -17,0000,    -42,0000,    987,0000,     52,0000,    -88,0000,    -10,0000,
12:47:18.1438498,    -15,0000,    -58,0000,    996,0000,    -10,0000,     96,0000,    -48,0000,
12:47:18.1438498,    -15,0000,    -56,0000,    997,0000,    -24,0000,    -78,0000,     52,0000,
12:47:18.1438498,    -16,0000,    -60,0000,   1000,0000,     -4,0000,     42,0000,    -10,0000,
12:47:18.1438498,    -18,0000,    -61,0000,    999,0000,     22,0000,    -54,0000,     64,0000,
12:47:18.1438498,    -16,0000,    -52,0000,    992,0000,     20,0000,     48,0000,    -64,0000,
12:47:18.1438498,    -13,0000,    -53,0000,    997,0000,    -50,0000,    -80,0000,      4,0000,
12:47:18.1438498,    -19,0000,    -51,0000,    997,0000,    -30,0000,     22,0000,     34,0000,
12:47:18.1538498,    -22,0000,    -47,0000,    992,0000,     68,0000,     52,0000,     -4,0000,
12:47:18.1538498,    -16,0000,    -55,0000,    991,0000,    -38,0000,    -98,0000,      0,0000,
12:47:18.1538498,    -14,0000,    -48,0000,    990,0000,    -18,0000,     62,0000,     -6,0000,
12:47:18.1538498,    -17,0000,    -55,0000,    989,0000,     -2,0000,     24,0000,      4,0000,
12:47:18.1538498,    -21,0000,    -49,0000,    998,0000,     20,0000,    -84,0000,    -62,0000,
12:47:18.1538498,    -14,0000,    -60,0000,    993,0000,     36,0000,    100,0000,     12,0000,
12:47:18.1538498,    -14,0000,    -56,0000,   1000,0000,   -112,0000,   -112,0000,     78,0000,
12:47:18.1538498,    -14,0000,    -58,0000,    990,0000,    118,0000,     36,0000,    -40,0000,
12:47:18.1538498,    -15,0000,    -55,0000,    999,0000,    -54,0000,    -24,0000,    -32,0000,
12:47:18.1538498,    -13,0000,    -56,0000,   1008,0000,     76,0000,      6,0000,     62,0000,
12:47:18.1538498,    -12,0000,    -60,0000,   1005,0000,     -4,0000,     56,0000,    -38,0000,
12:47:18.1538498,    -14,0000,    -57,0000,    993,0000,    -44,0000,   -120,0000,     -6,0000,
12:47:18.1538498,    -13,0000,    -57,0000,   1002,0000,     10,0000,    130,0000,     16,0000,
12:47:18.1538498,    -12,0000,    -50,0000,   1001,0000,      2,0000,    -88,0000,     66,0000,
12:47:18.1538498,    -14,0000,    -47,0000,    994,0000,      6,0000,     46,0000,    -86,0000,
12:47:18.1538498,    -19,0000,    -51,0000,    993,0000,     46,0000,     50,0000,      6,0000,
12:47:18.1538498,    -13,0000,    -53,0000,   1000,0000,    -84,0000,    -86,0000,    110,0000,
12:47:18.1538498,    -19,0000,    -46,0000,    988,0000,    -14,0000,     28,0000,    -54,0000,
12:47:18.1538498,    -16,0000,    -54,0000,    985,0000,            ,            ,            ,
12:47:18.1538498,    -19,0000,    -54,0000,    998,0000,     26,0000,    -46,0000,    -28,0000,
12:47:18.1538498,    -19,0000,    -54,0000,    997,0000,    -60,0000,     22,0000,     36,0000,
12:47:18.1538498,    -18,0000,    -50,0000,   1000,0000,     62,0000,    -24,0000,    -80,0000,
12:47:18.1538498,    -19,0000,    -45,0000,   1000,0000,    -62,0000,    -16,0000,     58,0000,
12:47:18.1538498,    -14,0000,    -46,0000,   1002,0000,     -4,0000,     40,0000,    -46,0000,
12:47:18.1538498,    -18,0000,    -45,0000,    993,0000,    -12,0000,    -46,0000,     72,0000,
12:47:18.1538498,    -17,0000,    -56,0000,    990,0000,    -34,0000,     22,0000,     30,0000,
12:47:18.1538498,    -13,0000,    -63,0000,    997,0000,    -34,0000,     22,0000,     30,0000,
12:47:18.1638498,    -17,0000,    -50,0000,    990,0000,     10,0000,      8,0000,    -20,0000,
12:47:18.1638498,    -13,0000,    -51,0000,   1002,0000,     -4,0000,    -74,0000,    -16,0000,
12:47:18.1638498,    -19,0000,    -49,0000,    996,0000,     72,0000,    118,0000,      4,0000,
12:47:18.1638498,    -17,0000,    -57,0000,    995,0000,    -94,0000,   -120,0000,     66,0000,
12:47:18.1638498,    -20,0000,    -52,0000,   1006,0000,    112,0000,     74,0000,   -138,0000,
12:47:18.1638498,    -10,0000,    -54,0000,    993,0000,    -66,0000,    -66,0000,    144,0000,
12:47:18.1638498,    -16,0000,    -54,0000,    998,0000,    -12,0000,     68,0000,    -50,0000,
12:47:18.1638498,    -14,0000,    -54,0000,    996,0000,     52,0000,      0,0000,    -18,0000,
12:47:18.1638498,    -14,0000,    -57,0000,    992,0000,    -16,0000,    -18,0000,      8,0000,
12:47:18.1638498,    -17,0000,    -54,0000,   1001,0000,    -14,0000,     30,0000,    -28,0000,
12:47:18.1638498,    -16,0000,    -52,0000,    996,0000,      6,0000,     28,0000,     20,0000,
12:47:18.1738498,    -15,0000,    -51,0000,    994,0000,     32,0000,    -40,0000,     14,0000,
12:47:18.1738498,    -11,0000,    -57,0000,    999,0000,    -50,0000,     44,0000,      6,0000,
12:47:18.1738498,    -11,0000,    -57,0000,    998,0000,     64,0000,    -34,0000,     14,0000,
12:47:18.1738498,    -10,0000,    -59,0000,    992,0000,    -46,0000,      0,0000,     54,0000,
12:47:18.1738498,    -20,0000,    -53,0000,    989,0000,    -26,0000,     -6,0000,    -46,0000,
12:47:18.1738498,    -19,0000,    -52,0000,    996,0000,     60,0000,     38,0000,     -2,0000,
12:47:18.1738498,    -18,0000,    -59,0000,    992,0000,    -32,0000,    -66,0000,    -42,0000,
12:47:18.1738498,    -20,0000,    -54,0000,   1009,0000,    -10,0000,     -2,0000,     22,0000,
12:47:18.1738498,    -13,0000,    -62,0000,    988,0000,     42,0000,     68,0000,    -14,0000,
12:47:18.1738498,    -13,0000,    -54,0000,   1002,0000,     34,0000,    -50,0000,    -44,0000,
12:47:18.1738498,    -16,0000,    -56,0000,    995,0000,    -98,0000,     42,0000,     90,0000,
12:47:18.1738498,    -10,0000,    -51,0000,    992,0000,     48,0000,     12,0000,    -60,0000,
12:47:18.1738498,    -21,0000,    -55,0000,    999,0000,    -10,0000,   -114,0000,     28,0000,
12:47:18.1738498,     -8,0000,    -51,0000,    992,0000,    -14,0000,     54,0000,     40,0000,
12:47:18.1738498,    -20,0000,    -49,0000,    991,0000,     50,0000,     44,0000,   -112,0000,
12:47:18.1738498,    -24,0000,    -61,0000,    996,0000,    -20,0000,     -4,0000,     52,0000,
12:47:18.1738498,    -17,0000,    -46,0000,    986,0000,      2,0000,    -36,0000,     32,0000,
12:47:18.1738498,    -20,0000,    -53,0000,    997,0000,     -2,0000,    -28,0000,     44,0000,
12:47:18.1738498,    -15,0000,    -57,0000,   1002,0000,     -8,0000,     70,0000,    -46,0000,
12:47:18.1738498,    -15,0000,    -57,0000,   1000,0000,     46,0000,    -62,0000,      0,0000,
12:47:18.1838498,    -15,0000,    -51,0000,    995,0000,    -34,0000,    -68,0000,     64,0000,
12:47:18.1838498,    -21,0000,    -54,0000,   1002,0000,    -32,0000,     46,0000,    -72,0000,
12:47:18.1838498,    -14,0000,    -51,0000,    994,0000,     -8,0000,      0,0000,     26,0000,
12:47:18.1838498,    -16,0000,    -47,0000,   1002,0000,     78,0000,      0,0000,     12,0000,
12:47:18.1838498,    -12,0000,    -55,0000,   1002,0000,    -24,0000,     16,0000,    -54,0000,
12:47:18.1838498,    -15,0000,    -55,0000,    996,0000,    -56,0000,    -56,0000,     38,0000,
12:47:18.1838498,    -16,0000,    -49,0000,    997,0000,     16,0000,    -12,0000,      4,0000,
12:47:18.1838498,    -12,0000,    -47,0000,    996,0000,     26,0000,     44,0000,     20,0000,
12:47:18.1838498,    -23,0000,    -49,0000,   1003,0000,    -18,0000,     14,0000,      4,0000,
12:47:18.1838498,    -13,0000,    -53,0000,   1001,0000,     20,0000,    -36,0000,    -20,0000,
12:47:18.1838498,    -20,0000,    -57,0000,    995,0000,     12,0000,     22,0000,     80,0000,
12:47:18.1838498,    -12,0000,    -54,0000,    990,0000,    -24,0000,     24,0000,    -52,0000,
12:47:18.1838498,     -8,0000,    -53,0000,    988,0000,     -2,0000,    -34,0000,    -42,0000,
12:47:18.1838498,    -16,0000,    -54,0000,    992,0000,     10,0000,     24,0000,     46,0000,
12:47:18.1838498,    -13,0000,    -50,0000,    998,0000,     -4,0000,     46,0000,    -14,0000,
12:47:18.1838498,    -19,0000,    -56,0000,    993,0000,    -24,0000,    -36,0000,    -64,0000,
12:47:18.1838498,    -19,0000,    -53,0000,    998,0000,     68,0000,      0,0000,     24,0000,
12:47:18.1838498,    -11,0000,    -54,0000,    999,0000,    -78,0000,    -12,0000,     38,0000,
12:47:18.1838498,    -18,0000,    -53,0000,   1007,0000,     42,0000,     46,0000,     42,0000,
12:47:18.1838498,    -17,0000,    -50,0000,   1006,0000,    -10,0000,    -60,0000,    -54,0000,
12:47:18.1838498,    -17,0000,    -47,0000,    998,0000,     46,0000,    110,0000,    -40,0000,
12:47:18.1938498,    -11,0000,    -49,0000,   1004,0000,    -42,0000,   -110,0000,     24,0000,
12:47:18.1938498,    -21,0000,    -53,0000,    995,0000,     42,0000,     76,0000,     32,0000,
12:47:18.1938498,    -15,0000,    -59,0000,    999,0000,    -32,0000,      2,0000,     36,0000,
12:47:18.1938498,     -8,0000,    -48,0000,    999,0000,     38,0000,      0,0000,     10,0000,
12:47:18.1938498,    -23,0000,    -52,0000,   1007,0000,      0,0000,     -8,0000,    -14,0000,
12:47:18.1938498,    -20,0000,    -53,0000,    996,0000,    -44,0000,    -50,0000,    -30,0000,
12:47:18.1938498,     -8,0000,    -48,0000,   1005,0000,     18,0000,      2,0000,     14,0000,
12:47:18.1938498,    -13,0000,    -49,0000,   1007,0000,     16,0000,    -12,0000,     26,0000,
12:47:18.1938498,    -18,0000,    -56,0000,    996,0000,    -50,0000,     -8,0000,    -34,0000,
12:47:18.1938498,    -14,0000,    -46,0000,    995,0000,     36,0000,      8,0000,    -20,0000,
12:47:18.1938498,    -14,0000,    -55,0000,    996,0000,     14,0000,    -12,0000,     28,0000,
12:47:18.1938498,    -12,0000,    -55,0000,   1005,0000,    -30,0000,     44,0000,    -58,0000,
12:47:18.1938498,     -9,0000,    -43,0000,    999,0000,    -54,0000,    -40,0000,     76,0000,
12:47:18.1938498,    -19,0000,    -43,0000,   1006,0000,     16,0000,     30,0000,     -6,0000,
12:47:18.1938498,    -15,0000,    -52,0000,    999,0000,     38,0000,    -12,0000,    -60,0000,
12:47:18.1938498,    -17,0000,    -58,0000,    992,0000,    -38,0000,    -36,0000,     -4,0000,
12:47:18.1938498,    -16,0000,    -55,0000,    999,0000,    -34,0000,     20,0000,     90,0000,
12:47:18.1938498,    -12,0000,    -52,0000,   1004,0000,    110,0000,     20,0000,    -82,0000,
12:47:18.1938498,    -14,0000,    -55,0000,    992,0000,   -108,0000,    -26,0000,     60,0000,
12:47:18.1938498,    -14,0000,    -54,0000,   1001,0000,     82,0000,     30,0000,    -70,0000,
12:47:18.1938498,    -12,0000,    -49,0000,   1008,0000,    -60,0000,     24,0000,    -12,0000,
12:47:18.1938498,    -10,0000,    -58,0000,   1006,0000,     -8,0000,    -22,0000,     62,0000,
12:47:18.1938498,    -11,0000,    -54,0000,   1004,0000,     54,0000,     54,0000,    -46,0000,
12:47:18.2048499,    -14,0000,    -58,0000,    998,0000,    -52,0000,    -68,0000,     30,0000,
12:47:18.2058500,    -21,0000,    -56,0000,    997,0000,     -4,0000,      2,0000,     38,0000,
12:47:18.2068500,    -10,0000,    -52,0000,    995,0000,     12,0000,     20,0000,    -18,0000,
12:47:18.2068500,    -21,0000,    -50,0000,    997,0000,     44,0000,      8,0000,    -84,0000,
12:47:18.2068500,    -19,0000,    -49,0000,   1006,0000,      4,0000,     22,0000,    186,0000,
12:47:18.2078501,    -12,0000,    -58,0000,   1003,0000,     -4,0000,     40,0000,   -110,0000,
12:47:18.2078501,    -21,0000,    -46,0000,    995,0000,      8,0000,    -48,0000,     44,0000,
12:47:18.2078501,     -9,0000,    -54,0000,   1006,0000,     16,0000,     52,0000,     -2,0000,
12:47:18.2088501,    -15,0000,    -55,0000,   1000,0000,    -60,0000,    -68,0000,    -50,0000,
12:47:18.2088501,    -13,0000,    -49,0000,   1003,0000,    -30,0000,     14,0000,     18,0000,
12:47:18.2088501,    -20,0000,    -48,0000,   1000,0000,     62,0000,    -12,0000,    -44,0000,
12:47:18.2098502,    -19,0000,    -52,0000,    998,0000,    -62,0000,     -4,0000,     48,0000,
12:47:18.2098502,    -18,0000,    -58,0000,   1000,0000,     70,0000,     84,0000,     30,0000,
12:47:18.2098502,    -12,0000,    -52,0000,    996,0000,    -20,0000,    -90,0000,    -52,0000,
12:47:18.2108502,    -19,0000,    -59,0000,   1000,0000,      0,0000,     14,0000,     32,0000,
12:47:18.2118503,    -13,0000,    -62,0000,    990,0000,    -10,0000,      8,0000,     -4,0000,
12:47:18.2118503,    -16,0000,    -48,0000,    997,0000,    -24,0000,    -34,0000,    -32,0000,
12:47:18.2118503,    -16,0000,    -63,0000,    998,0000,     28,0000,     22,0000,     60,0000,
12:47:18.2128504,    -14,0000,    -52,0000,    997,0000,    -42,0000,    -20,0000,    -64,0000,
12:47:18.2128504,    -12,0000,    -56,0000,    995,0000,    -40,0000,    -12,0000,     66,0000,
12:47:18.2128504,    -10,0000,    -53,0000,    995,0000,    172,0000,     90,0000,    -52,0000,
12:47:18.2138504,    -15,0000,    -59,0000,    996,0000,   -152,0000,   -120,0000,     94,0000,
12:47:18.2138504,    -21,0000,    -43,0000,   1006,0000,     48,0000,     64,0000,    -98,0000,
12:47:18.2138504,     -7,0000,    -52,0000,    998,0000,     52,0000,    -60,0000,    -26,0000,
12:47:18.2148505,    -14,0000,    -61,0000,   1001,0000,    -62,0000,     22,0000,     48,0000,
12:47:18.2148505,    -11,0000,    -53,0000,   1005,0000,    -44,0000,      6,0000,     84,0000,
12:47:18.2148505,    -17,0000,    -49,0000,   1000,0000,    120,0000,      0,0000,     -8,0000,
12:47:18.2158505,    -20,0000,    -50,0000,    996,0000,    -80,0000,    -48,0000,    -32,0000,
12:47:18.2158505,    -13,0000,    -54,0000,    999,0000,     58,0000,      0,0000,    -20,0000,
12:47:18.2168506,    -23,0000,    -59,0000,    989,0000,    -76,0000,     50,0000,     44,0000,
12:47:18.2168506,    -14,0000,    -53,0000,    994,0000,    -18,0000,     12,0000,    -42,0000,
12:47:18.2168506,    -13,0000,    -51,0000,    998,0000,     68,0000,    -50,0000,      0,0000,
12:47:18.2168506,    -15,0000,    -56,0000,   1004,0000,    -42,0000,    -34,0000,     62,0000,
12:47:18.2178506,    -15,0000,    -56,0000,   1004,0000,     70,0000,     90,0000,    -64,0000,
12:47:18.2178506,    -12,0000,    -51,0000,   1000,0000,    -44,0000,     42,0000,    -36,0000,
12:47:18.2178506,    -10,0000,    -55,0000,    996,0000,     -4,0000,   -100,0000,     82,0000,
12:47:18.2188507,    -20,0000,    -53,0000,    996,0000,     22,0000,     28,0000,    -88,0000,
12:47:18.2188507,    -13,0000,    -45,0000,    988,0000,     10,0000,     -6,0000,     74,0000,
12:47:18.2188507,    -22,0000,    -44,0000,    997,0000,     -2,0000,    -18,0000,    -28,0000,
12:47:18.2198508,    -14,0000,    -62,0000,    992,0000,    -32,0000,    -58,0000,     42,0000,
12:47:18.2198508,    -12,0000,    -54,0000,   1002,0000,     52,0000,     82,0000,     -2,0000,
12:47:18.2208508,    -13,0000,    -57,0000,   1005,0000,    -30,0000,    -30,0000,    -42,0000,
12:47:18.2208508,    -13,0000,    -54,0000,   1002,0000,      2,0000,      0,0000,      0,0000,
12:47:18.2208508,    -14,0000,    -55,0000,    994,0000,     38,0000,    -16,0000,     62,0000,
12:47:18.2218509,    -20,0000,    -55,0000,    988,0000,     -4,0000,     20,0000,   -104,0000,
12:47:18.2218509,    -23,0000,    -54,0000,   1001,0000,    -64,0000,    -50,0000,     46,0000,
12:47:18.2218509,    -17,0000,    -54,0000,    996,0000,     86,0000,     78,0000,     32,0000,
12:47:18.2228509,    -18,0000,    -51,0000,    993,0000,    -76,0000,    -10,0000,     24,0000,
12:47:18.2228509,    -24,0000,    -46,0000,    997,0000,     -8,0000,    -42,0000,    -26,0000,
12:47:18.2228509,    -15,0000,    -56,0000,   1007,0000,     14,0000,     58,0000,     14,0000,
12:47:18.2238510,    -16,0000,    -56,0000,   1001,0000,     16,0000,    -88,0000,    -16,0000,
12:47:18.2238510,     -5,0000,    -61,0000,    999,0000,    -30,0000,     40,0000,     40,0000,
12:47:18.2238510,    -18,0000,    -48,0000,   1000,0000,     32,0000,    -12,0000,    -34,0000,
12:47:18.2248511,    -22,0000,    -53,0000,   1002,0000,     36,0000,      0,0000,    -28,0000,
12:47:18.2248511,    -18,0000,    -52,0000,    997,0000,   -116,0000,    -62,0000,    120,0000,
12:47:18.2258511,    -18,0000,    -52,0000,    997,0000,    108,0000,     98,0000,    -82,0000,
12:47:18.2258511,    -14,0000,    -51,0000,   1004,0000,    -56,0000,    -32,0000,      4,0000,
12:47:18.2258511,    -14,0000,    -64,0000,    994,0000,      4,0000,    -14,0000,     30,0000,
12:47:18.2258511,    -18,0000,    -50,0000,    998,0000,    -26,0000,    -20,0000,    -50,0000,
12:47:18.2258511,    -12,0000,    -59,0000,   1000,0000,     -4,0000,      0,0000,     46,0000,
12:47:18.2258511,    -16,0000,    -48,0000,    993,0000,    -10,0000,      8,0000,      0,0000,
12:47:18.2258511,    -18,0000,    -54,0000,    995,0000,     78,0000,      8,0000,    -28,0000,
12:47:18.2258511,    -19,0000,    -55,0000,   1003,0000,   -112,0000,    -30,0000,    -32,0000,
12:47:18.2258511,    -14,0000,    -46,0000,    995,0000,    100,0000,      6,0000,     40,0000,
12:47:18.2258511,     -7,0000,    -65,0000,    997,0000,    -54,0000,      6,0000,    -32,0000,
12:47:18.2258511,    -10,0000,    -54,0000,    999,0000,     26,0000,    -52,0000,     44,0000,
12:47:18.2258511,    -18,0000,    -50,0000,    998,0000,     -4,0000,     48,0000,     58,0000,
12:47:18.2258511,    -12,0000,    -47,0000,   1001,0000,      0,0000,     42,0000,    -82,0000,
12:47:18.2258511,    -15,0000,    -50,0000,    991,0000,    -30,0000,     -2,0000,     18,0000,
12:47:18.2258511,    -19,0000,    -57,0000,    998,0000,     32,0000,    -40,0000,     -8,0000,
12:47:18.2258511,    -13,0000,    -62,0000,    989,0000,     -4,0000,     22,0000,     46,0000,
12:47:18.2258511,    -28,0000,    -56,0000,    994,0000,    -14,0000,     10,0000,     -4,0000,
12:47:18.2258511,    -17,0000,    -56,0000,   1000,0000,     52,0000,    -56,0000,    -14,0000,
12:47:18.2358511,    -17,0000,    -56,0000,   1003,0000,    -34,0000,     88,0000,    -36,0000,
12:47:18.2358511,    -21,0000,    -60,0000,   1001,0000,    -30,0000,    -96,0000,    132,0000,
12:47:18.2358511,    -13,0000,    -59,0000,    999,0000,     52,0000,     16,0000,   -130,0000,
12:47:18.2358511,    -18,0000,    -49,0000,   1003,0000,    -62,0000,      6,0000,     60,0000,
12:47:18.2358511,    -18,0000,    -49,0000,   1000,0000,     46,0000,     12,0000,     -8,0000,
12:47:18.2358511,    -10,0000,    -61,0000,    998,0000,     -8,0000,     22,0000,    -48,0000,
12:47:18.2358511,    -12,0000,    -49,0000,    996,0000,    -26,0000,    -34,0000,     36,0000,
12:47:18.2358511,    -17,0000,    -54,0000,    997,0000,     54,0000,     24,0000,    -26,0000,
12:47:18.2358511,    -18,0000,    -50,0000,   1008,0000,    -62,0000,     -8,0000,     -2,0000,
12:47:18.2358511,    -12,0000,    -52,0000,    996,0000,     34,0000,     20,0000,     20,0000,
12:47:18.2358511,     -8,0000,    -51,0000,    995,0000,     26,0000,     34,0000,     30,0000,
12:47:18.2358511,    -19,0000,    -46,0000,    996,0000,    -70,0000,    -60,0000,      6,0000,
12:47:18.2358511,    -13,0000,    -55,0000,   1002,0000,     86,0000,     56,0000,    -46,0000,
12:47:18.2358511,    -14,0000,    -50,0000,    999,0000,     12,0000,    -20,0000,     20,0000,
12:47:18.2358511,    -18,0000,    -46,0000,   1004,0000,    -48,0000,      6,0000,    -26,0000,
12:47:18.2358511,    -17,0000,    -55,0000,    991,0000,    -70,0000,   -132,0000,    130,0000,
12:47:18.2358511,    -18,0000,    -46,0000,    992,0000,    120,0000,     82,0000,   -120,0000,
12:47:18.2358511,    -11,0000,    -54,0000,    998,0000,    -40,0000,    -12,0000,    -18,0000,
12:47:18.2358511,    -16,0000,    -58,0000,    990,0000,     44,0000,    -10,0000,     30,0000,
12:47:18.2358511,    -20,0000,    -56,0000,    991,0000,   -144,0000,    -62,0000,     88,0000,
12:47:18.2358511,    -20,0000,    -52,0000,    989,0000,     98,0000,     86,0000,   -108,0000,
12:47:18.2358511,    -17,0000,    -50,0000,    998,0000,    -10,0000,     20,0000,     60,0000,
12:47:18.2358511,    -13,0000,    -58,0000,   1004,0000,    -16,0000,    -24,0000,    -12,0000,
12:47:18.2358511,    -17,0000,    -52,0000,   1003,0000,    -28,0000,    -22,0000,     22,0000,
12:47:18.2358511,    -16,0000,    -53,0000,    997,0000,     26,0000,     28,0000,    -20,0000,
12:47:18.2358511,     -4,0000,    -56,0000,    996,0000,     66,0000,    -40,0000,    -12,0000,
12:47:18.2458511,    -17,0000,    -55,0000,   1006,0000,    -20,0000,      4,0000,    -20,0000,
12:47:18.2458511,    -18,0000,    -57,0000,   1001,0000,    -40,0000,    -24,0000,    102,0000,
12:47:18.2458511,    -16,0000,    -51,0000,    990,0000,      8,0000,     44,0000,   -134,0000,
12:47:18.2458511,    -14,0000,    -54,0000,    993,0000,     16,0000,    -26,0000,     74,0000,
12:47:18.2458511,    -21,0000,    -48,0000,    992,0000,    -34,0000,    -12,0000,     -4,0000,
12:47:18.2458511,    -19,0000,    -52,0000,    990,0000,      0,0000,    -26,0000,     -8,0000,
12:47:18.2458511,    -17,0000,    -55,0000,    995,0000,     12,0000,    -20,0000,     10,0000,
12:47:18.2458511,    -14,0000,    -60,0000,    993,0000,     34,0000,     92,0000,    -24,0000,
12:47:18.2458511,    -11,0000,    -63,0000,   1000,0000,    -54,0000,    -12,0000,      2,0000,
12:47:18.2458511,    -13,0000,    -62,0000,   1003,0000,     42,0000,    -96,0000,     50,0000,
12:47:18.2458511,    -18,0000,    -47,0000,    992,0000,   -106,0000,    -38,0000,    -94,0000,
12:47:18.2458511,    -10,0000,    -53,0000,    994,0000,     66,0000,    138,0000,     88,0000,
12:47:18.2458511,     -6,0000,    -56,0000,    994,0000,     18,0000,    -44,0000,    -40,0000,
12:47:18.2458511,    -20,0000,    -56,0000,   1004,0000,    -14,0000,    -26,0000,     70,0000,
12:47:18.2458511,    -15,0000,    -54,0000,   1010,0000,     10,0000,      8,0000,    -60,0000,
12:47:18.2458511,    -13,0000,    -46,0000,    992,0000,    -38,0000,     34,0000,      4,0000,
12:47:18.2458511,    -11,0000,    -56,0000,    994,0000,     20,0000,    -38,0000,     12,0000,
12:47:18.2458511,    -12,0000,    -53,0000,   1001,0000,     20,0000,     54,0000,     -2,0000,
12:47:18.2458511,    -21,0000,    -50,0000,   1008,0000,      2,0000,     -6,0000,     10,0000,
12:47:18.2458511,    -14,0000,    -53,0000,    999,0000,     -8,0000,   -106,0000,    -32,0000,
12:47:18.2558511,    -14,0000,    -46,0000,   1003,0000,     42,0000,    130,0000,     48,0000,
12:47:18.2558511,    -12,0000,    -54,0000,   1002,0000,    -70,0000,   -110,0000,     14,0000,
12:47:18.2558511,    -15,0000,    -53,0000,    993,0000,     62,0000,     62,0000,    -32,0000,
12:47:18.2558511,    -21,0000,    -54,0000,   1003,0000,    -30,0000,    -46,0000,    -10,0000,
12:47:18.2558511,    -18,0000,    -48,0000,    993,0000,    -20,0000,     48,0000,     52,0000,
12:47:18.2558511,    -17,0000,    -43,0000,    999,0000,     32,0000,     42,0000,     -4,0000,
12:47:18.2558511,    -21,0000,    -55,0000,    999,0000,    -16,0000,    -50,0000,    -34,0000,
12:47:18.2558511,    -16,0000,    -54,0000,    998,0000,     12,0000,     16,0000,     20,0000,
12:47:18.2558511,    -21,0000,    -54,0000,    992,0000,     22,0000,     -2,0000,    -52,0000,
12:47:18.2558511,     -9,0000,    -54,0000,   1000,0000,    -58,0000,      8,0000,    100,0000,
12:47:18.2558511,    -20,0000,    -58,0000,    997,0000,      2,0000,    -60,0000,    -38,0000,
12:47:18.2558511,    -14,0000,    -51,0000,   1000,0000,     26,0000,     22,0000,     30,0000,
12:47:18.2558511,    -17,0000,    -59,0000,    997,0000,    -42,0000,     56,0000,    -78,0000,
12:47:18.2558511,    -12,0000,    -54,0000,    997,0000,     -8,0000,    -44,0000,     96,0000,
12:47:18.2558511,    -12,0000,    -49,0000,    984,0000,     78,0000,    -34,0000,    -68,0000,
12:47:18.2558511,    -14,0000,    -58,0000,    990,0000,   -124,0000,     16,0000,     30,0000,
12:47:18.2558511,    -17,0000,    -62,0000,   1002,0000,     22,0000,     40,0000,     20,0000,
12:47:18.2558511,    -17,0000,    -54,0000,    991,0000,     26,0000,    -16,0000,    -24,0000,
12:47:18.2558511,    -16,0000,    -44,0000,    993,0000,     64,0000,     30,0000,     -2,0000,
12:47:18.2558511,     -9,0000,    -52,0000,   1003,0000,    -94,0000,    -42,0000,    -10,0000,
12:47:18.2558511,    -12,0000,    -59,0000,   1001,0000,     26,0000,     -2,0000,     42,0000,
12:47:18.2558511,    -20,0000,    -49,0000,    995,0000,    -22,0000,     14,0000,    -68,0000,
12:47:18.2558511,    -14,0000,    -55,0000,    991,0000,    -20,0000,     54,0000,     90,0000,
12:47:18.2558511,    -17,0000,    -53,0000,   1002,0000,     62,0000,    -40,0000,    -28,0000,
12:47:18.2558511,    -19,0000,    -62,0000,    999,0000,    -18,0000,    -16,0000,      2,0000,
12:47:18.2558511,    -14,0000,    -66,0000,    992,0000,     -8,0000,    100,0000,    -68,0000,
12:47:18.2558511,    -15,0000,    -58,0000,    998,0000,     -4,0000,   -104,0000,    112,0000,
12:47:18.2558511,    -16,0000,    -64,0000,   1002,0000,     16,0000,     72,0000,    -66,0000,
12:47:18.2558511,    -16,0000,    -53,0000,    993,0000,      0,0000,     -4,0000,     24,0000,
12:47:18.2558511,    -12,0000,    -54,0000,    991,0000,     22,0000,    -26,0000,     62,0000,
12:47:18.2558511,    -16,0000,    -52,0000,    994,0000,    -24,0000,    -32,0000,    -70,0000,
12:47:18.2558511,    -17,0000,    -60,0000,   1002,0000,     78,0000,     14,0000,     16,0000,
12:47:18.2658512,    -10,0000,    -51,0000,   1001,0000,    -58,0000,     46,0000,     26,0000,
12:47:18.2658512,    -21,0000,    -56,0000,   1002,0000,    -20,0000,    -56,0000,    -52,0000,
12:47:18.2658512,    -15,0000,    -43,0000,    992,0000,     38,0000,     12,0000,      8,0000,
12:47:18.2758512,    -16,0000,    -53,0000,    995,0000,      0,0000,     56,0000,    -68,0000,
12:47:18.2758512,    -15,0000,    -60,0000,    994,0000,    -76,0000,    -72,0000,     98,0000,
12:47:18.2758512,    -11,0000,    -50,0000,    993,0000,     12,0000,     62,0000,     20,0000,
12:47:18.2758512,    -16,0000,    -53,0000,    991,0000,     50,0000,    -22,0000,    -46,0000,
12:47:18.2758512,    -17,0000,    -52,0000,    992,0000,    -12,0000,    -56,0000,     18,0000,
12:47:18.2758512,    -15,0000,    -49,0000,    999,0000,      0,0000,     62,0000,     34,0000,
12:47:18.2758512,    -15,0000,    -59,0000,   1002,0000,    -42,0000,    -26,0000,    -28,0000,
12:47:18.2758512,     -7,0000,    -54,0000,    991,0000,     36,0000,     -2,0000,    -60,0000,
12:47:18.2758512,    -13,0000,    -51,0000,    994,0000,    -22,0000,    -16,0000,    100,0000,
12:47:18.2758512,    -15,0000,    -57,0000,    995,0000,     22,0000,    138,0000,    -46,0000,
12:47:18.2758512,    -13,0000,    -52,0000,   1006,0000,    -30,0000,   -156,0000,    -52,0000,
12:47:18.2758512,    -18,0000,    -56,0000,    995,0000,     34,0000,     42,0000,     46,0000,
12:47:18.2758512,     -9,0000,    -57,0000,   1002,0000,    -20,0000,     34,0000,     24,0000,
12:47:18.2758512,    -21,0000,    -56,0000,    998,0000,    -40,0000,    -40,0000,    -32,0000,
12:47:18.2758512,    -18,0000,    -60,0000,   1004,0000,     72,0000,      4,0000,     26,0000,
12:47:18.2758512,    -21,0000,    -52,0000,   1000,0000,     -4,0000,    -12,0000,     -4,0000,
12:47:18.2758512,    -15,0000,    -52,0000,   1001,0000,    -42,0000,     -4,0000,     34,0000,
12:47:18.2758512,    -14,0000,    -48,0000,    997,0000,     26,0000,    -32,0000,    -78,0000,
12:47:18.2758512,    -15,0000,    -49,0000,    992,0000,    -56,0000,     68,0000,     56,0000,
12:47:18.2758512,    -20,0000,    -54,0000,   1001,0000,     68,0000,      4,0000,     26,0000,
12:47:18.2758512,    -19,0000,    -55,0000,    997,0000,      0,0000,    -26,0000,      0,0000,
12:47:18.2758512,    -13,0000,    -53,0000,    990,0000,     10,0000,     14,0000,    -90,0000,
12:47:18.2858512,    -17,0000,    -53,0000,    994,0000,    -38,0000,    -12,0000,     48,0000,
12:47:18.2858512,    -20,0000,    -50,0000,    988,0000,     34,0000,     28,0000,     12,0000,
12:47:18.2858512,    -11,0000,    -57,0000,   1000,0000,    -90,0000,    -40,0000,    -12,0000,
12:47:18.2858512,    -19,0000,    -62,0000,   1005,0000,    138,0000,    -10,0000,    -26,0000,
12:47:18.2858512,    -20,0000,    -53,0000,    993,0000,   -130,0000,     42,0000,     86,0000,
12:47:18.2858512,    -13,0000,    -55,0000,    999,0000,     68,0000,     56,0000,    -82,0000,
12:47:18.2858512,    -17,0000,    -57,0000,    997,0000,     18,0000,     -4,0000,     40,0000,
12:47:18.2858512,    -15,0000,    -65,0000,   1006,0000,   -100,0000,    -40,0000,    -12,0000,
12:47:18.2858512,    -18,0000,    -48,0000,    995,0000,     78,0000,    -30,0000,      6,0000,
12:47:18.2858512,    -17,0000,    -58,0000,    993,0000,      4,0000,     98,0000,    -28,0000,
12:47:18.2858512,    -13,0000,    -44,0000,    989,0000,    -48,0000,   -134,0000,     38,0000,
12:47:18.2858512,    -15,0000,    -53,0000,   1005,0000,     24,0000,     36,0000,    -10,0000,
12:47:18.2858512,    -16,0000,    -59,0000,   1005,0000,    -24,0000,     12,0000,    -58,0000,
12:47:18.2858512,    -19,0000,    -57,0000,    992,0000,     44,0000,     14,0000,    112,0000,
12:47:18.2858512,    -15,0000,    -52,0000,    995,0000,    -50,0000,    -34,0000,    -84,0000,
12:47:18.2858512,    -13,0000,    -53,0000,   1009,0000,     16,0000,    -54,0000,     18,0000,
12:47:18.2858512,    -17,0000,    -58,0000,    990,0000,     46,0000,     62,0000,    -32,0000,
12:47:18.2858512,    -11,0000,    -53,0000,    992,0000,    -38,0000,    -34,0000,     96,0000,
12:47:18.2858512,    -26,0000,    -58,0000,   1004,0000,     32,0000,     72,0000,    -84,0000,
12:47:18.2858512,    -18,0000,    -44,0000,   1001,0000,      8,0000,    -48,0000,    -46,0000,
12:47:18.2858512,    -18,0000,    -49,0000,    998,0000,    -54,0000,     22,0000,    120,0000,
12:47:18.2858512,    -24,0000,    -56,0000,    997,0000,     22,0000,    -34,0000,   -122,0000,
12:47:18.2858512,    -18,0000,    -49,0000,    995,0000,     50,0000,    -12,0000,    124,0000,
12:47:18.2858512,    -12,0000,    -53,0000,    993,0000,      0,0000,     32,0000,    -20,0000,
12:47:18.2858512,    -16,0000,    -52,0000,   1005,0000,    -58,0000,   -116,0000,     56,0000,
12:47:18.2958512,    -16,0000,    -49,0000,   1004,0000,     42,0000,     70,0000,   -102,0000,
12:47:18.2958512,    -12,0000,    -47,0000,    996,0000,      8,0000,    -12,0000,     76,0000,
12:47:18.2958512,    -18,0000,    -50,0000,   1003,0000,    -68,0000,      0,0000,    -36,0000,
12:47:18.2958512,    -12,0000,    -63,0000,    999,0000,     80,0000,      0,0000,     52,0000,
12:47:18.2958512,    -14,0000,    -55,0000,   1007,0000,   -104,0000,     -2,0000,   -128,0000,
12:47:18.2958512,    -24,0000,    -52,0000,   1000,0000,     22,0000,    -94,0000,    134,0000,
12:47:18.2958512,    -16,0000,    -50,0000,   1009,0000,     16,0000,    138,0000,    -42,0000,
12:47:18.2958512,    -19,0000,    -55,0000,   1001,0000,    -30,0000,    -50,0000,    -34,0000,
12:47:18.2958512,    -17,0000,    -55,0000,   1002,0000,     54,0000,     28,0000,     -6,0000,
12:47:18.2958512,    -14,0000,    -52,0000,    991,0000,    -56,0000,     -2,0000,     40,0000,
12:47:18.2958512,    -21,0000,    -56,0000,   1004,0000,     22,0000,     20,0000,    -32,0000,
12:47:18.2958512,    -17,0000,    -53,0000,    994,0000,     -4,0000,    -60,0000,     64,0000,
12:47:18.2958512,    -12,0000,    -47,0000,    997,0000,     34,0000,     50,0000,    -28,0000,
12:47:18.2958512,    -18,0000,    -61,0000,    999,0000,    -46,0000,      8,0000,    -58,0000,
12:47:18.2958512,    -17,0000,    -53,0000,    997,0000,     60,0000,      4,0000,     14,0000,
12:47:18.2958512,     -9,0000,    -53,0000,    998,0000,    -20,0000,    -18,0000,     32,0000,
12:47:18.2958512,    -19,0000,    -56,0000,    993,0000,    -96,0000,    -72,0000,     -4,0000,
12:47:18.2958512,    -14,0000,    -49,0000,    996,0000,     56,0000,     34,0000,    -24,0000,
12:47:18.2958512,    -19,0000,    -51,0000,   1005,0000,    -24,0000,     64,0000,     44,0000,
12:47:18.2958512,    -14,0000,    -51,0000,    995,0000,     38,0000,    -20,0000,     50,0000,
12:47:18.2958512,    -17,0000,    -61,0000,   1003,0000,    -40,0000,    -26,0000,   -146,0000,
12:47:18.2958512,     -7,0000,    -57,0000,    993,0000,     36,0000,    -54,0000,    130,0000,
12:47:18.2958512,    -18,0000,    -50,0000,    996,0000,    -36,0000,     30,0000,    -34,0000,
12:47:18.2958512,     -7,0000,    -50,0000,    995,0000,     54,0000,     14,0000,    -32,0000,
12:47:18.2958512,    -17,0000,    -47,0000,    999,0000,    -10,0000,     26,0000,      0,0000,
12:47:18.2958512,    -28,0000,    -54,0000,   1000,0000,     22,0000,    -10,0000,     44,0000,
12:47:18.2958512,    -18,0000,    -50,0000,    997,0000,    -32,0000,    -60,0000,     38,0000,
12:47:18.2958512,    -18,0000,    -55,0000,    995,0000,    -10,0000,     66,0000,    -34,0000,
12:47:18.2958512,    -17,0000,    -49,0000,    988,0000,     42,0000,    -80,0000,    -62,0000,
12:47:18.3058512,    -16,0000,    -46,0000,   1006,0000,    -24,0000,     18,0000,     90,0000,
12:47:18.3058512,    -12,0000,    -49,0000,    999,0000,      6,0000,     16,0000,    -16,0000,
12:47:18.3058512,     -9,0000,    -53,0000,    992,0000,     52,0000,     22,0000,    -12,0000,
12:47:18.3058512,    -18,0000,    -56,0000,   1001,0000,    -98,0000,     24,0000,      8,0000,
12:47:18.3058512,     -9,0000,    -54,0000,    996,0000,     78,0000,    -20,0000,      2,0000,
12:47:18.3058512,    -18,0000,    -54,0000,   1003,0000,      0,0000,     -6,0000,     -6,0000,
12:47:18.3158512,    -19,0000,    -53,0000,    992,0000,    -54,0000,    -54,0000,     30,0000,
12:47:18.3158512,    -22,0000,    -41,0000,    996,0000,     54,0000,     56,0000,    -80,0000,
12:47:18.3158512,    -17,0000,    -53,0000,   1000,0000,     46,0000,     -2,0000,     22,0000,
12:47:18.3158512,    -10,0000,    -50,0000,   1001,0000,    -72,0000,     42,0000,      4,0000,
12:47:18.3158512,    -16,0000,    -53,0000,    996,0000,    -66,0000,    -58,0000,     32,0000,
12:47:18.3158512,     -8,0000,    -56,0000,   1001,0000,     58,0000,    -28,0000,    -24,0000,
12:47:18.3158512,    -18,0000,    -53,0000,   1001,0000,     50,0000,      2,0000,    -46,0000,
12:47:18.3158512,    -16,0000,    -56,0000,    996,0000,    -48,0000,     48,0000,    -14,0000,
12:47:18.3158512,    -16,0000,    -48,0000,   1000,0000,    -12,0000,    -68,0000,     78,0000,
12:47:18.3158512,    -17,0000,    -54,0000,    995,0000,      0,0000,     62,0000,    -68,0000,
12:47:18.3158512,    -15,0000,    -46,0000,    997,0000,     -4,0000,     24,0000,     88,0000,
12:47:18.3158512,    -12,0000,    -66,0000,    999,0000,     12,0000,    -62,0000,    -48,0000,
12:47:18.3158512,    -11,0000,    -42,0000,    996,0000,     58,0000,     32,0000,     10,0000,
12:47:18.3158512,    -12,0000,    -57,0000,    999,0000,    -30,0000,    -44,0000,      0,0000,
12:47:18.3158512,    -21,0000,    -51,0000,   1000,0000,    -10,0000,     12,0000,    -18,0000,
12:47:18.3158512,    -13,0000,    -53,0000,    997,0000,    -18,0000,    -12,0000,     36,0000,
12:47:18.3158512,    -16,0000,    -49,0000,   1005,0000,    -10,0000,    -14,0000,     -8,0000,
12:47:18.3158512,    -19,0000,    -54,0000,    999,0000,     58,0000,      6,0000,     50,0000,
12:47:18.3158512,    -13,0000,    -55,0000,    996,0000,    -70,0000,      6,0000,    -58,0000,
12:47:18.3158512,    -13,0000,    -55,0000,    996,0000,     12,0000,     16,0000,    -32,0000,
12:47:18.3158512,    -15,0000,    -50,0000,    995,0000,    -44,0000,    -38,0000,     46,0000,
12:47:18.3158512,    -12,0000,    -57,0000,    993,0000,     68,0000,     52,0000,     42,0000,
12:47:18.3158512,    -17,0000,    -53,0000,    999,0000,    -36,0000,    -70,0000,    -82,0000,
12:47:18.3158512,    -12,0000,    -55,0000,    993,0000,     40,0000,     66,0000,     34,0000,
12:47:18.3158512,    -17,0000,    -55,0000,   1000,0000,     18,0000,    -34,0000,    -10,0000,
12:47:18.3158512,    -19,0000,    -47,0000,   1000,0000,    -20,0000,     24,0000,     46,0000,
12:47:18.3158512,    -22,0000,    -58,0000,    994,0000,    -42,0000,    -88,0000,    -34,0000,
12:47:18.3158512,    -18,0000,    -56,0000,   1002,0000,      2,0000,     66,0000,     38,0000,
12:47:18.3158512,    -14,0000,    -53,0000,    999,0000,     26,0000,     48,0000,    -22,0000,
12:47:18.3158512,    -17,0000,    -59,0000,    988,0000,     92,0000,    -46,0000,      6,0000,
12:47:18.3158512,    -22,0000,    -54,0000,    997,0000,    -96,0000,     56,0000,     18,0000,
12:47:18.3258512,    -19,0000,    -59,0000,    992,0000,     42,0000,    -60,0000,    -44,0000,
12:47:18.3258512,    -13,0000,    -52,0000,    999,0000,    -34,0000,     22,0000,      2,0000,
12:47:18.3258512,    -19,0000,    -51,0000,    999,0000,      6,0000,     20,0000,     30,0000,
12:47:18.3258512,    -21,0000,    -44,0000,    997,0000,      8,0000,    -72,0000,    -42,0000,
12:47:18.3258512,    -22,0000,    -50,0000,    991,0000,     28,0000,     42,0000,      4,0000,
12:47:18.3258512,    -13,0000,    -52,0000,    996,0000,    -40,0000,     28,0000,    -62,0000,
12:47:18.3258512,    -22,0000,    -49,0000,    998,0000,     32,0000,    -38,0000,     84,0000,
12:47:18.3258512,    -17,0000,    -53,0000,    996,0000,    -66,0000,     24,0000,     34,0000,
12:47:18.3258512,    -16,0000,    -48,0000,   1008,0000,     64,0000,    -20,0000,    -50,0000,
12:47:18.3258512,    -18,0000,    -45,0000,   1000,0000,    -14,0000,    -34,0000,     20,0000,
12:47:18.3258512,    -18,0000,    -45,0000,   1000,0000,    -34,0000,     76,0000,      8,0000,
12:47:18.3258512,    -14,0000,    -52,0000,    998,0000,     18,0000,    -48,0000,      2,0000,
12:47:18.3258512,     -7,0000,    -54,0000,    996,0000,     12,0000,    -28,0000,    -18,0000,
12:47:18.3258512,    -15,0000,    -55,0000,    997,0000,    -54,0000,      0,0000,     10,0000,
12:47:18.3258512,     -9,0000,    -52,0000,   1001,0000,     16,0000,     80,0000,    -14,0000,
12:47:18.3358513,    -22,0000,    -52,0000,    998,0000,      0,0000,    -52,0000,     22,0000,
12:47:18.3358513,    -12,0000,    -56,0000,    999,0000,    -34,0000,      6,0000,    -12,0000,
12:47:18.3358513,    -16,0000,    -52,0000,   1000,0000,     -4,0000,     -6,0000,     32,0000,
12:47:18.3358513,    -16,0000,    -53,0000,   1003,0000,     30,0000,     20,0000,    -24,0000,
12:47:18.3358513,     -8,0000,    -55,0000,    997,0000,     -4,0000,    -38,0000,     32,0000,
12:47:18.3358513,    -13,0000,    -54,0000,    992,0000,      2,0000,     22,0000,    -58,0000,
12:47:18.3358513,     -9,0000,    -45,0000,   1000,0000,     -2,0000,    -28,0000,     12,0000,
12:47:18.3358513,    -23,0000,    -56,0000,    999,0000,     14,0000,    -14,0000,     60,0000,
12:47:18.3358513,    -20,0000,    -50,0000,    997,0000,     52,0000,     -8,0000,    -88,0000,
12:47:18.3358513,    -16,0000,    -59,0000,    998,0000,     -6,0000,     -4,0000,     74,0000,
12:47:18.3358513,    -15,0000,    -54,0000,    996,0000,    -40,0000,      4,0000,   -110,0000,
12:47:18.3358513,    -17,0000,    -55,0000,    998,0000,      8,0000,    -14,0000,     60,0000,
12:47:18.3358513,    -11,0000,    -49,0000,    998,0000,     12,0000,    -38,0000,    102,0000,
12:47:18.3358513,    -12,0000,    -44,0000,    994,0000,    -50,0000,     -6,0000,    -98,0000,
12:47:18.3358513,    -17,0000,    -53,0000,   1001,0000,     60,0000,     44,0000,     32,0000,
12:47:18.3458513,    -14,0000,    -51,0000,    997,0000,    -32,0000,     -4,0000,    -98,0000,
12:47:18.3458513,    -11,0000,    -54,0000,    998,0000,    -54,0000,    -68,0000,     60,0000,
12:47:18.3458513,    -13,0000,    -56,0000,   1001,0000,      6,0000,     84,0000,     90,0000,
12:47:18.3458513,    -13,0000,    -53,0000,    991,0000,    118,0000,    -60,0000,    -38,0000,
12:47:18.3458513,    -14,0000,    -62,0000,    997,0000,    -70,0000,     28,0000,     22,0000,
12:47:18.3458513,    -20,0000,    -58,0000,    999,0000,    -20,0000,    -76,0000,    -20,0000,
12:47:18.3458513,    -18,0000,    -61,0000,    988,0000,      0,0000,     40,0000,     -4,0000,
12:47:18.3458513,    -14,0000,    -55,0000,    997,0000,     12,0000,     24,0000,     10,0000,
12:47:18.3458513,    -21,0000,    -54,0000,    998,0000,     26,0000,      6,0000,     -6,0000,
12:47:18.3458513,    -23,0000,    -57,0000,    998,0000,    -40,0000,    -74,0000,     54,0000,
12:47:18.3458513,    -19,0000,    -53,0000,    997,0000,     50,0000,     76,0000,    -42,0000,
12:47:18.3458513,    -13,0000,    -49,0000,    993,0000,     -6,0000,      8,0000,     14,0000,
12:47:18.3458513,    -11,0000,    -47,0000,   1002,0000,    -52,0000,    -28,0000,    -22,0000,
12:47:18.3458513,    -13,0000,    -63,0000,    999,0000,     52,0000,    -30,0000,    -92,0000,
12:47:18.3458513,    -16,0000,    -57,0000,   1003,0000,    -92,0000,    -40,0000,     98,0000,
12:47:18.3458513,    -18,0000,    -54,0000,    997,0000,     94,0000,     60,0000,     64,0000,
12:47:18.3458513,    -16,0000,    -54,0000,    996,0000,    -56,0000,    -50,0000,   -128,0000,
12:47:18.3458513,    -12,0000,    -52,0000,    996,0000,     38,0000,     56,0000,    136,0000,
12:47:18.3458513,    -14,0000,    -50,0000,   1000,0000,    -14,0000,    -38,0000,      6,0000,
12:47:18.3458513,    -20,0000,    -52,0000,    993,0000,    -10,0000,     -2,0000,    -88,0000,
12:47:18.3558513,    -10,0000,    -51,0000,   1003,0000,    -40,0000,     28,0000,     62,0000,
12:47:18.3558513,    -16,0000,    -54,0000,    999,0000,     52,0000,    -68,0000,    -70,0000,
12:47:18.3558513,     -9,0000,    -52,0000,   1003,0000,     22,0000,     36,0000,     16,0000,
12:47:18.3558513,    -18,0000,    -48,0000,    999,0000,    -56,0000,     28,0000,     26,0000,
12:47:18.3558513,    -17,0000,    -57,0000,    988,0000,     22,0000,     -6,0000,     60,0000,
12:47:18.3558513,    -15,0000,    -54,0000,    998,0000,     18,0000,    -54,0000,   -100,0000,
12:47:18.3558513,    -11,0000,    -56,0000,   1002,0000,    -36,0000,     70,0000,     24,0000,
12:47:18.3558513,     -9,0000,    -47,0000,   1003,0000,     66,0000,     -6,0000,     34,0000,
12:47:18.3558513,    -16,0000,    -58,0000,   1000,0000,    -26,0000,    -42,0000,      8,0000,
12:47:18.3558513,    -16,0000,    -55,0000,    992,0000,     20,0000,    -10,0000,    -24,0000,
12:47:18.3558513,    -19,0000,    -59,0000,    999,0000,    -40,0000,     48,0000,    -32,0000,
12:47:18.3558513,    -14,0000,    -56,0000,    996,0000,     36,0000,      8,0000,     20,0000,
12:47:18.3558513,    -27,0000,    -59,0000,   1003,0000,     14,0000,   -104,0000,    -34,0000,
12:47:18.3558513,    -16,0000,    -56,0000,   1003,0000,    -14,0000,    110,0000,     60,0000,
12:47:18.3558513,    -13,0000,    -55,0000,    997,0000,    -40,0000,   -108,0000,     -6,0000,
12:47:18.3558513,    -17,0000,    -53,0000,   1006,0000,     46,0000,     26,0000,    -12,0000,
12:47:18.3558513,    -16,0000,    -56,0000,   1005,0000,    -28,0000,     46,0000,     56,0000,
12:47:18.3558513,     -3,0000,    -49,0000,    999,0000,     -4,0000,    -22,0000,    -32,0000,
12:47:18.3558513,     -9,0000,    -54,0000,   1002,0000,     92,0000,    -34,0000,     -8,0000,
12:47:18.3558513,    -13,0000,    -51,0000,   1002,0000,   -100,0000,     44,0000,    -12,0000,
12:47:18.3558513,     -9,0000,    -54,0000,   1003,0000,     46,0000,      8,0000,     58,0000,
12:47:18.3558513,    -13,0000,    -51,0000,    994,0000,     26,0000,    -54,0000,    -98,0000,
12:47:18.3558513,    -12,0000,    -57,0000,    994,0000,    -32,0000,     62,0000,    100,0000,
12:47:18.3558513,    -19,0000,    -46,0000,    995,0000,     24,0000,    -24,0000,     12,0000,
12:47:18.3558513,    -13,0000,    -58,0000,   1000,0000,     16,0000,     36,0000,    -70,0000,
12:47:18.3558513,    -14,0000,    -51,0000,   1001,0000,    -14,0000,   -108,0000,     42,0000,
12:47:18.3558513,    -13,0000,    -62,0000,    996,0000,     42,0000,     78,0000,    -14,0000,
12:47:18.3558513,    -10,0000,    -62,0000,    990,0000,     44,0000,      0,0000,    -34,0000,
12:47:18.3558513,    -17,0000,    -43,0000,    998,0000,    -60,0000,     26,0000,     54,0000,
12:47:18.3558513,    -17,0000,    -55,0000,    994,0000,     22,0000,    -46,0000,      2,0000,
12:47:18.3658513,    -19,0000,    -54,0000,    994,0000,    -22,0000,     66,0000,    -32,0000,
12:47:18.3658513,    -13,0000,    -52,0000,   1001,0000,     14,0000,      0,0000,    -26,0000,
12:47:18.3658513,    -17,0000,    -62,0000,   1005,0000,     14,0000,     30,0000,     48,0000,
12:47:18.3658513,     -9,0000,    -49,0000,    989,0000,      2,0000,    -44,0000,     72,0000,
12:47:18.3658513,    -12,0000,    -59,0000,    992,0000,    -20,0000,     54,0000,    -68,0000,
12:47:18.3758513,    -17,0000,    -47,0000,    992,0000,     16,0000,     22,0000,     52,0000,
12:47:18.3758513,    -12,0000,    -56,0000,   1003,0000,     16,0000,    -98,0000,    -62,0000,
12:47:18.3758513,    -18,0000,    -54,0000,    992,0000,    -12,0000,     84,0000,     30,0000,
12:47:18.3758513,    -15,0000,    -42,0000,   1000,0000,    -18,0000,    -46,0000,     36,0000,
12:47:18.3758513,    -15,0000,    -57,0000,    999,0000,    -22,0000,     -4,0000,    -58,0000,
12:47:18.3758513,    -17,0000,    -52,0000,    993,0000,      6,0000,     -6,0000,     20,0000,
12:47:18.3758513,    -21,0000,    -42,0000,    995,0000,      0,0000,     -6,0000,     -8,0000,
12:47:18.3758513,     -8,0000,    -56,0000,    983,0000,     44,0000,    -34,0000,     20,0000,
12:47:18.3758513,     -9,0000,    -47,0000,    993,0000,    -28,0000,     50,0000,      4,0000,
12:47:18.3758513,    -15,0000,    -57,0000,    999,0000,    -14,0000,     14,0000,    -18,0000,
12:47:18.3758513,    -16,0000,    -51,0000,    990,0000,    -34,0000,    -22,0000,     44,0000,
12:47:18.3758513,    -16,0000,    -47,0000,   1000,0000,     42,0000,    -96,0000,   -102,0000,
12:47:18.3758513,    -15,0000,    -47,0000,    994,0000,    -70,0000,    -12,0000,    132,0000,
12:47:18.3758513,    -19,0000,    -53,0000,    998,0000,     82,0000,     98,0000,   -152,0000,
12:47:18.3758513,    -19,0000,    -60,0000,    997,0000,      6,0000,    -34,0000,     54,0000,
12:47:18.3758513,    -16,0000,    -53,0000,   1004,0000,    -76,0000,     -6,0000,     40,0000,
12:47:18.3758513,    -17,0000,    -49,0000,    999,0000,     42,0000,     -4,0000,    -62,0000,
12:47:18.3758513,    -21,0000,    -58,0000,    997,0000,    -36,0000,    104,0000,     12,0000,
12:47:18.3758513,    -13,0000,    -57,0000,    998,0000,    -20,0000,   -106,0000,     54,0000,
12:47:18.3758513,    -18,0000,    -59,0000,   1001,0000,     44,0000,    -20,0000,     22,0000,
12:47:18.3758513,    -14,0000,    -45,0000,    995,0000,     30,0000,     56,0000,    -34,0000,
12:47:18.3758513,    -16,0000,    -54,0000,    995,0000,    -24,0000,     32,0000,     34,0000,
12:47:18.3758513,    -13,0000,    -53,0000,    995,0000,    -16,0000,    -82,0000,     60,0000,
12:47:18.3758513,    -14,0000,    -55,0000,    999,0000,    -10,0000,     44,0000,    -58,0000,
12:47:18.3758513,    -17,0000,    -58,0000,    996,0000,      8,0000,      0,0000,    -34,0000,
12:47:18.3758513,    -13,0000,    -58,0000,    989,0000,    -14,0000,      2,0000,    -30,0000,
12:47:18.3758513,    -15,0000,    -54,0000,    993,0000,     74,0000,     30,0000,     58,0000,
12:47:18.3758513,    -13,0000,    -53,0000,    998,0000,    -44,0000,    -66,0000,     -6,0000,
12:47:18.3758513,    -19,0000,    -50,0000,    993,0000,     28,0000,      2,0000,      4,0000,
12:47:18.3758513,     -7,0000,    -52,0000,   1005,0000,    -48,0000,    -18,0000,    -72,0000,
12:47:18.3758513,    -16,0000,    -48,0000,   1000,0000,     56,0000,     16,0000,     48,0000,
12:47:18.3858513,    -17,0000,    -52,0000,    995,0000,    -80,0000,    -30,0000,     28,0000,
12:47:18.3858513,    -24,0000,    -53,0000,    997,0000,     62,0000,     30,0000,    -44,0000,
12:47:18.3858513,    -13,0000,    -50,0000,    997,0000,    -60,0000,    -34,0000,     86,0000,
12:47:18.3858513,     -5,0000,    -47,0000,   1002,0000,     74,0000,     64,0000,    -82,0000,
12:47:18.3858513,    -16,0000,    -59,0000,    997,0000,    -26,0000,    -54,0000,     12,0000,
12:47:18.3858513,     -9,0000,    -55,0000,   1003,0000,     22,0000,     46,0000,     10,0000,
12:47:18.3858513,    -22,0000,    -57,0000,   1010,0000,    -32,0000,    -40,0000,     -6,0000,
12:47:18.3858513,    -12,0000,    -60,0000,    994,0000,      8,0000,    -30,0000,      0,0000,
12:47:18.3858513,    -11,0000,    -53,0000,   1005,0000,    -16,0000,     50,0000,    -60,0000,
12:47:18.3858513,    -20,0000,    -52,0000,   1000,0000,     22,0000,    -80,0000,     76,0000,
12:47:18.3858513,    -16,0000,    -55,0000,    992,0000,     -8,0000,    -10,0000,    -62,0000,
12:47:18.3858513,     -8,0000,    -58,0000,   1001,0000,      8,0000,    110,0000,     42,0000,
12:47:18.3858513,    -17,0000,    -55,0000,    995,0000,    -50,0000,   -150,0000,     14,0000,
12:47:18.3858513,    -14,0000,    -53,0000,   1000,0000,     12,0000,    102,0000,     -4,0000,
12:47:18.3858513,    -17,0000,    -55,0000,   1003,0000,     22,0000,     16,0000,    -16,0000,
12:47:18.3858513,    -15,0000,    -45,0000,    998,0000,    -22,0000,    -64,0000,    -30,0000,
12:47:18.3958513,    -13,0000,    -40,0000,    994,0000,    -50,0000,    -40,0000,     30,0000,
12:47:18.3958513,    -18,0000,    -55,0000,    997,0000,     30,0000,     62,0000,    -38,0000,
12:47:18.3958513,    -22,0000,    -53,0000,    999,0000,    -44,0000,      8,0000,    140,0000,
12:47:18.3958513,    -13,0000,    -56,0000,   1005,0000,     70,0000,     50,0000,   -102,0000,
12:47:18.3958513,     -9,0000,    -54,0000,   1010,0000,    -68,0000,    -30,0000,    -32,0000,
12:47:18.3958513,    -18,0000,    -43,0000,   1007,0000,     32,0000,   -106,0000,     86,0000,
12:47:18.3958513,    -19,0000,    -58,0000,    998,0000,     46,0000,     82,0000,     42,0000,
12:47:18.3958513,    -18,0000,    -59,0000,   1010,0000,   -116,0000,     26,0000,    -14,0000,
12:47:18.3958513,    -19,0000,    -54,0000,   1002,0000,    124,0000,    -74,0000,    -26,0000,
12:47:18.3958513,    -14,0000,    -53,0000,    998,0000,    -66,0000,     48,0000,    -54,0000,
12:47:18.3958513,    -18,0000,    -48,0000,    997,0000,    -20,0000,    -34,0000,      0,0000,
12:47:18.3958513,    -13,0000,    -47,0000,    997,0000,     -8,0000,    108,0000,    114,0000,
12:47:18.3958513,    -24,0000,    -57,0000,    999,0000,      0,0000,    -82,0000,    -54,0000,
12:47:18.3958513,    -10,0000,    -57,0000,    994,0000,     38,0000,     -4,0000,    -70,0000,
12:47:18.3958513,    -13,0000,    -53,0000,   1002,0000,    -40,0000,     24,0000,     88,0000,
12:47:18.3958513,    -14,0000,    -50,0000,    998,0000,     16,0000,     26,0000,    -52,0000,
12:47:18.3958513,    -21,0000,    -52,0000,    999,0000,      2,0000,    -40,0000,     38,0000,
12:47:18.3958513,    -17,0000,    -58,0000,    996,0000,    -24,0000,     30,0000,     72,0000,
12:47:18.3958513,    -10,0000,    -59,0000,    997,0000,     18,0000,     -4,0000,    -98,0000,
12:47:18.3958513,     -6,0000,    -57,0000,    997,0000,    -24,0000,    -46,0000,     44,0000,
12:47:18.3958513,    -13,0000,    -54,0000,    992,0000,     48,0000,    104,0000,     -6,0000,
12:47:18.3958513,    -12,0000,    -49,0000,    994,0000,     -2,0000,    -64,0000,     20,0000,
12:47:18.3958513,    -12,0000,    -56,0000,    992,0000,    -56,0000,    -26,0000,    -58,0000,
12:47:18.3958513,    -12,0000,    -60,0000,   1000,0000,     54,0000,    -20,0000,      4,0000,
12:47:18.3958513,    -12,0000,    -50,0000,   1001,0000,     10,0000,     68,0000,     34,0000,
12:47:18.3958513,    -18,0000,    -54,0000,    993,0000,    -44,0000,    -14,0000,    -52,0000,
12:47:18.4058514,    -14,0000,    -59,0000,   1003,0000,     26,0000,     20,0000,     44,0000,
12:47:18.4058514,    -18,0000,    -56,0000,    993,0000,     20,0000,    -24,0000,     -4,0000,
12:47:18.4058514,    -19,0000,    -55,0000,    995,0000,     -2,0000,     82,0000,      2,0000,
12:47:18.4058514,    -18,0000,    -47,0000,    999,0000,     26,0000,    -84,0000,    -24,0000,
12:47:18.4058514,    -15,0000,    -51,0000,    992,0000,     10,0000,    -26,0000,    -32,0000,
12:47:18.4058514,    -20,0000,    -50,0000,    991,0000,    -62,0000,     56,0000,     76,0000,
12:47:18.4058514,    -16,0000,    -54,0000,    996,0000,     -2,0000,      8,0000,     60,0000,
12:47:18.4058514,    -14,0000,    -51,0000,    999,0000,      6,0000,    -26,0000,    -48,0000,
12:47:18.4158514,    -16,0000,    -54,0000,    997,0000,    -24,0000,     62,0000,     26,0000,
12:47:18.4158514,    -19,0000,    -54,0000,   1001,0000,      8,0000,   -100,0000,     36,0000,
12:47:18.4158514,    -16,0000,    -55,0000,    997,0000,      2,0000,     38,0000,    -92,0000,
12:47:18.4158514,    -19,0000,    -52,0000,    997,0000,     62,0000,     14,0000,    -24,0000,
12:47:18.4158514,    -16,0000,    -52,0000,    994,0000,    -34,0000,    -30,0000,     86,0000,
12:47:18.4158514,    -20,0000,    -45,0000,    998,0000,    -40,0000,    -16,0000,     -6,0000,
12:47:18.4158514,    -15,0000,    -63,0000,    994,0000,    -34,0000,    -40,0000,    -52,0000,
12:47:18.4158514,    -13,0000,    -52,0000,    991,0000,     94,0000,    106,0000,    -12,0000,
12:47:18.4158514,    -15,0000,    -45,0000,    996,0000,    -58,0000,    -10,0000,     46,0000,
12:47:18.4158514,    -15,0000,    -52,0000,    997,0000,     64,0000,    -34,0000,     16,0000,
12:47:18.4158514,    -12,0000,    -54,0000,   1001,0000,    -68,0000,    -54,0000,    -16,0000,
12:47:18.4158514,    -12,0000,    -56,0000,    997,0000,     24,0000,     88,0000,      0,0000,
12:47:18.4158514,     -9,0000,    -59,0000,    998,0000,     -2,0000,    -70,0000,     96,0000,
12:47:18.4158514,    -16,0000,    -56,0000,    992,0000,    -10,0000,     74,0000,   -104,0000,
12:47:18.4158514,    -18,0000,    -52,0000,   1005,0000,     52,0000,   -102,0000,     18,0000,
12:47:18.4158514,    -20,0000,    -51,0000,    990,0000,     24,0000,    148,0000,    -12,0000,
12:47:18.4158514,    -19,0000,    -61,0000,    990,0000,   -118,0000,    -70,0000,     24,0000,
12:47:18.4158514,    -18,0000,    -59,0000,    999,0000,     74,0000,      8,0000,     86,0000,
12:47:18.4158514,    -15,0000,    -58,0000,   1001,0000,     32,0000,     30,0000,   -148,0000,
12:47:18.4158514,    -20,0000,    -53,0000,   1002,0000,      4,0000,     -2,0000,     42,0000,
12:47:18.4158514,    -14,0000,    -45,0000,   1000,0000,    -70,0000,    -26,0000,     -4,0000,
12:47:18.4158514,     -8,0000,    -51,0000,    993,0000,    -28,0000,     46,0000,    -32,0000,
12:47:18.4158514,     -8,0000,    -51,0000,    993,0000,     60,0000,    -68,0000,     78,0000,
12:47:18.4158514,    -16,0000,    -51,0000,   1001,0000,    -66,0000,     24,0000,    -28,0000,
12:47:18.4158514,    -18,0000,    -52,0000,   1000,0000,     18,0000,    -12,0000,     34,0000,
12:47:18.4158514,    -13,0000,    -52,0000,    996,0000,     62,0000,     56,0000,    -90,0000,
12:47:18.4158514,    -14,0000,    -54,0000,   1000,0000,    -58,0000,    -56,0000,     42,0000,
12:47:18.4258514,    -10,0000,    -56,0000,   1005,0000,    -22,0000,    -60,0000,     16,0000,
12:47:18.4258514,    -17,0000,    -45,0000,   1002,0000,     32,0000,     82,0000,    -34,0000,
12:47:18.4258514,    -14,0000,    -55,0000,    995,0000,    -22,0000,     12,0000,     36,0000,
12:47:18.4258514,    -14,0000,    -56,0000,    995,0000,     16,0000,    -58,0000,     26,0000,
12:47:18.4258514,    -22,0000,    -44,0000,    998,0000,     -4,0000,     24,0000,    -58,0000,
12:47:18.4258514,    -17,0000,    -55,0000,   1000,0000,    -60,0000,     14,0000,     92,0000,
12:47:18.4258514,    -17,0000,    -43,0000,    999,0000,     66,0000,     18,0000,    -62,0000,
12:47:18.4258514,    -17,0000,    -53,0000,    984,0000,    -24,0000,    -12,0000,     78,0000,
12:47:18.4258514,    -16,0000,    -46,0000,    997,0000,     10,0000,     56,0000,    -78,0000,
12:47:18.4258514,    -16,0000,    -55,0000,    995,0000,     -2,0000,    -48,0000,     30,0000,
12:47:18.4258514,    -22,0000,    -52,0000,    986,0000,    -22,0000,    -46,0000,      8,0000,
12:47:18.4258514,    -16,0000,    -53,0000,    993,0000,     36,0000,     66,0000,    -36,0000,
12:47:18.4258514,    -16,0000,    -62,0000,    989,0000,   -104,0000,    -38,0000,    -20,0000,
12:47:18.4258514,    -10,0000,    -55,0000,    996,0000,     46,0000,     18,0000,     40,0000,
12:47:18.4258514,    -14,0000,    -52,0000,    991,0000,     56,0000,     36,0000,    -32,0000,
12:47:18.4258514,    -16,0000,    -45,0000,    991,0000,      2,0000,     12,0000,    -30,0000,
12:47:18.4258514,    -15,0000,    -51,0000,    998,0000,    -58,0000,    -74,0000,    110,0000,
12:47:18.4258514,    -17,0000,    -59,0000,    994,0000,     32,0000,     20,0000,   -140,0000,
12:47:18.4258514,    -14,0000,    -47,0000,    997,0000,    -10,0000,    -64,0000,     80,0000,
12:47:18.4258514,    -15,0000,    -52,0000,    992,0000,      8,0000,     44,0000,     60,0000,
12:47:18.4358514,    -13,0000,    -53,0000,   1005,0000,      0,0000,     22,0000,    -90,0000,
12:47:18.4358514,    -21,0000,    -57,0000,    998,0000,    -40,0000,      8,0000,     22,0000,
12:47:18.4358514,    -23,0000,    -54,0000,    997,0000,     40,0000,     68,0000,    -10,0000,
12:47:18.4358514,    -13,0000,    -52,0000,   1003,0000,    -76,0000,   -140,0000,     12,0000,
12:47:18.4358514,    -18,0000,    -57,0000,    993,0000,     92,0000,     96,0000,    -22,0000,
12:47:18.4358514,    -19,0000,    -51,0000,    999,0000,    -28,0000,    -74,0000,    -18,0000,
12:47:18.4358514,    -19,0000,    -52,0000,   1003,0000,    -52,0000,     46,0000,    126,0000,
12:47:18.4358514,    -14,0000,    -48,0000,    994,0000,     52,0000,     -2,0000,    -96,0000,
12:47:18.4358514,    -20,0000,    -58,0000,    999,0000,    -10,0000,    -12,0000,     66,0000,
12:47:18.4358514,    -22,0000,    -48,0000,   1007,0000,     24,0000,     30,0000,    -88,0000,
12:47:18.4358514,    -15,0000,    -54,0000,   1000,0000,    -30,0000,    -56,0000,    128,0000,
12:47:18.4358514,    -11,0000,    -56,0000,    998,0000,      6,0000,     42,0000,   -122,0000,
12:47:18.4358514,    -13,0000,    -63,0000,    997,0000,     70,0000,    -26,0000,     92,0000,
12:47:18.4358514,    -15,0000,    -58,0000,   1003,0000,    -86,0000,    -20,0000,    -20,0000,
12:47:18.4358514,    -18,0000,    -43,0000,    993,0000,     -4,0000,    -20,0000,    -10,0000,
12:47:18.4358514,    -21,0000,    -49,0000,    998,0000,     24,0000,     56,0000,     12,0000,
12:47:18.4358514,    -17,0000,    -57,0000,   1000,0000,    -30,0000,    -18,0000,    -46,0000,
12:47:18.4358514,    -10,0000,    -58,0000,    991,0000,    -30,0000,     -6,0000,     16,0000,
12:47:18.4358514,    -20,0000,    -56,0000,    992,0000,      4,0000,     -2,0000,    -20,0000,
12:47:18.4358514,    -11,0000,    -44,0000,    992,0000,     60,0000,    -18,0000,     20,0000,
12:47:18.4358514,    -14,0000,    -51,0000,    999,0000,    -44,0000,     26,0000,    -24,0000,
12:47:18.4358514,    -13,0000,    -53,0000,   1000,0000,     52,0000,     -4,0000,     38,0000,
12:47:18.4358514,    -15,0000,    -55,0000,    996,0000,      0,0000,    -36,0000,    -20,0000,
12:47:18.4358514,     -7,0000,    -54,0000,   1003,0000,     -8,0000,     62,0000,     54,0000,
12:47:18.4358514,    -10,0000,    -54,0000,   1000,0000,    -10,0000,    -38,0000,    -28,0000,
12:47:18.4358514,    -12,0000,    -51,0000,    995,0000,    -12,0000,    -30,0000,    -58,0000,
12:47:18.4358514,    -16,0000,    -49,0000,    991,0000,     18,0000,      4,0000,     68,0000,
12:47:18.4358514,    -11,0000,    -66,0000,   1003,0000,    -24,0000,    -34,0000,   -108,0000,
12:47:18.4358514,    -17,0000,    -62,0000,    998,0000,      6,0000,     90,0000,     24,0000,
12:47:18.4458514,    -12,0000,    -54,0000,    992,0000,     24,0000,    -70,0000,     86,0000,
12:47:18.4458514,    -18,0000,    -55,0000,   1001,0000,     -4,0000,      2,0000,      4,0000,
12:47:18.4458514,    -21,0000,    -51,0000,    998,0000,     -4,0000,     28,0000,    -28,0000,
12:47:18.4458514,    -12,0000,    -51,0000,    997,0000,      0,0000,    -14,0000,      6,0000,
12:47:18.4458514,    -12,0000,    -54,0000,   1000,0000,    -14,0000,    -50,0000,     18,0000,
12:47:18.4458514,    -18,0000,    -51,0000,    997,0000,      8,0000,    116,0000,     26,0000,
12:47:18.4558514,    -15,0000,    -53,0000,    999,0000,    -60,0000,    -88,0000,      0,0000,
12:47:18.4558514,    -15,0000,    -55,0000,   1006,0000,     78,0000,     84,0000,    -24,0000,
12:47:18.4558514,    -18,0000,    -58,0000,   1004,0000,    -74,0000,    -92,0000,     14,0000,
12:47:18.4558514,    -11,0000,    -51,0000,    995,0000,     38,0000,     46,0000,      0,0000,
12:47:18.4558514,    -18,0000,    -50,0000,    999,0000,    -14,0000,      0,0000,     38,0000,
12:47:18.4558514,    -19,0000,    -61,0000,    990,0000,      8,0000,      0,0000,    -46,0000,
12:47:18.4558514,    -12,0000,    -49,0000,    992,0000,    -26,0000,    -52,0000,    -60,0000,
12:47:18.4558514,    -14,0000,    -57,0000,    995,0000,     48,0000,    -20,0000,     68,0000,
12:47:18.4558514,    -15,0000,    -46,0000,    998,0000,    -24,0000,     68,0000,     20,0000,
12:47:18.4558514,    -12,0000,    -51,0000,    986,0000,     32,0000,    -44,0000,    -18,0000,
12:47:18.4558514,    -20,0000,    -49,0000,    996,0000,    -20,0000,    -18,0000,     30,0000,
12:47:18.4558514,    -23,0000,    -48,0000,    997,0000,    -16,0000,     32,0000,    -30,0000,
12:47:18.4558514,    -17,0000,    -58,0000,    993,0000,      2,0000,    -14,0000,    100,0000,
12:47:18.4558514,    -12,0000,    -53,0000,   1000,0000,    -32,0000,     10,0000,    -20,0000,
12:47:18.4558514,    -11,0000,    -59,0000,    992,0000,      8,0000,    -52,0000,    -90,0000,
12:47:18.4558514,    -14,0000,    -44,0000,    994,0000,     56,0000,     54,0000,     14,0000,
12:47:18.4558514,    -19,0000,    -57,0000,    992,0000,    -54,0000,    -66,0000,    -14,0000,
12:47:18.4558514,    -14,0000,    -51,0000,   1003,0000,     34,0000,      6,0000,     10,0000,
12:47:18.4558514,    -15,0000,    -56,0000,    995,0000,    -18,0000,     98,0000,     30,0000,
12:47:18.4558514,    -15,0000,    -45,0000,    994,0000,    -24,0000,    -60,0000,    -40,0000,
12:47:18.4558514,    -15,0000,    -53,0000,   1000,0000,     72,0000,     -2,0000,     30,0000,
12:47:18.4558514,    -21,0000,    -49,0000,   1000,0000,    -16,0000,     34,0000,    -36,0000,
12:47:18.4558514,    -20,0000,    -57,0000,    993,0000,    -32,0000,     32,0000,    -66,0000,
12:47:18.4558514,    -13,0000,    -56,0000,   1000,0000,     26,0000,    -76,0000,    106,0000,
12:47:18.4558514,    -13,0000,    -57,0000,    992,0000,     -4,0000,     52,0000,    -44,0000,
12:47:18.4558514,    -14,0000,    -43,0000,    998,0000,      4,0000,    -16,0000,     58,0000,
12:47:18.4558514,    -16,0000,    -49,0000,    998,0000,     30,0000,    -20,0000,     26,0000,
12:47:18.4558514,    -14,0000,    -50,0000,    995,0000,    -40,0000,     32,0000,    -24,0000,
12:47:18.4558514,    -17,0000,    -51,0000,    995,0000,    100,0000,     -6,0000,     22,0000,
12:47:18.4558514,    -18,0000,    -51,0000,   1003,0000,    -86,0000,    -32,0000,    -56,0000,
12:47:18.4558514,    -19,0000,    -50,0000,   1003,0000,      6,0000,     42,0000,     38,0000,
12:47:18.4558514,    -12,0000,    -50,0000,    998,0000,     12,0000,    -28,0000,    -64,0000,
12:47:18.4558514,    -13,0000,    -52,0000,    990,0000,     -2,0000,    -34,0000,    -12,0000,
12:47:18.4558514,    -13,0000,    -52,0000,    994,0000,    -16,0000,     36,0000,     20,0000,
12:47:18.4658514,    -18,0000,    -54,0000,    991,0000,     82,0000,     30,0000,      2,0000,
12:47:18.4658514,    -17,0000,    -60,0000,    999,0000,    -72,0000,    -12,0000,    -56,0000,
12:47:18.4658514,    -21,0000,    -52,0000,    999,0000,    -32,0000,    -24,0000,    120,0000,
12:47:18.4658514,    -18,0000,    -51,0000,    997,0000,      2,0000,     -6,0000,    -40,0000,
12:47:18.4658514,     -7,0000,    -59,0000,    993,0000,    -10,0000,     80,0000,    -42,0000,
12:47:18.4658514,    -16,0000,    -61,0000,   1003,0000,     56,0000,    -54,0000,     76,0000,
12:47:18.4658514,    -22,0000,    -49,0000,   1000,0000,     30,0000,     30,0000,    -38,0000,
12:47:18.4658514,    -24,0000,    -60,0000,   1000,0000,    -56,0000,      2,0000,     38,0000,
12:47:18.4658514,    -15,0000,    -48,0000,    996,0000,    -38,0000,    -50,0000,    -30,0000,
12:47:18.4658514,    -22,0000,    -58,0000,    998,0000,    110,0000,     72,0000,    -40,0000,
12:47:18.4658514,    -22,0000,    -58,0000,   1001,0000,    -78,0000,    -44,0000,     24,0000,
12:47:18.4658514,    -13,0000,    -60,0000,    992,0000,     36,0000,     -2,0000,     30,0000,
12:47:18.4758515,    -15,0000,    -53,0000,    993,0000,    -52,0000,     72,0000,     10,0000,
12:47:18.4758515,    -10,0000,    -51,0000,    995,0000,     40,0000,    -12,0000,      2,0000,
12:47:18.4758515,    -12,0000,    -61,0000,    999,0000,     28,0000,    -58,0000,     -6,0000,
12:47:18.4758515,    -20,0000,    -55,0000,   1000,0000,    -48,0000,     10,0000,    -18,0000,
12:47:18.4758515,    -14,0000,    -51,0000,   1001,0000,     94,0000,    104,0000,     14,0000,
12:47:18.4758515,    -20,0000,    -50,0000,    992,0000,    -66,0000,    -70,0000,     46,0000,
12:47:18.4758515,    -16,0000,    -50,0000,    991,0000,    -26,0000,    -36,0000,    -74,0000,
12:47:18.4758515,    -14,0000,    -57,0000,    994,0000,     68,0000,     86,0000,     28,0000,
12:47:18.4758515,    -18,0000,    -49,0000,   1002,0000,    -46,0000,    -40,0000,     32,0000,
12:47:18.4758515,    -17,0000,    -56,0000,    995,0000,     78,0000,     -2,0000,    -34,0000,
12:47:18.4758515,    -16,0000,    -51,0000,   1000,0000,    -56,0000,      0,0000,      6,0000,
12:47:18.4758515,    -21,0000,    -46,0000,    998,0000,    -20,0000,     -2,0000,     30,0000,
12:47:18.4758515,    -12,0000,    -51,0000,    996,0000,     22,0000,      0,0000,     46,0000,
12:47:18.4758515,    -16,0000,    -49,0000,    995,0000,     22,0000,     56,0000,   -112,0000,
12:47:18.4758515,    -18,0000,    -56,0000,    996,0000,    -36,0000,    -46,0000,     28,0000,
12:47:18.4758515,    -13,0000,    -55,0000,   1001,0000,     16,0000,    -56,0000,      8,0000,
12:47:18.4758515,    -20,0000,    -54,0000,    996,0000,    -56,0000,     -6,0000,     40,0000,
12:47:18.4758515,    -15,0000,    -52,0000,    995,0000,     68,0000,      6,0000,     20,0000,
12:47:18.4758515,    -20,0000,    -52,0000,    986,0000,    -60,0000,     -6,0000,    -96,0000,
12:47:18.4858515,    -14,0000,    -48,0000,    998,0000,     58,0000,     10,0000,     32,0000,
12:47:18.4858515,    -13,0000,    -47,0000,    998,0000,    -84,0000,    -38,0000,     60,0000,
12:47:18.4858515,    -14,0000,    -44,0000,    997,0000,    114,0000,     14,0000,    -54,0000,
12:47:18.4858515,    -20,0000,    -54,0000,    996,0000,    -20,0000,     40,0000,     50,0000,
12:47:18.4858515,    -13,0000,    -55,0000,    988,0000,    -54,0000,    -54,0000,   -116,0000,
12:47:18.4858515,    -17,0000,    -50,0000,    995,0000,     30,0000,    -32,0000,    122,0000,
12:47:18.4858515,    -17,0000,    -61,0000,   1006,0000,     -4,0000,     86,0000,    -16,0000,
12:47:18.4858515,    -12,0000,    -59,0000,    992,0000,     26,0000,    -50,0000,    -28,0000,
12:47:18.4858515,    -16,0000,    -54,0000,    999,0000,    -16,0000,    -24,0000,     18,0000,
12:47:18.4858515,    -13,0000,    -47,0000,   1002,0000,    -34,0000,     52,0000,     38,0000,
12:47:18.4858515,    -14,0000,    -61,0000,   1005,0000,    -16,0000,    -12,0000,      4,0000,
12:47:18.4858515,    -17,0000,    -52,0000,    997,0000,     38,0000,     18,0000,    -96,0000,
12:47:18.4858515,    -19,0000,    -57,0000,   1002,0000,    -12,0000,    -52,0000,     70,0000,
12:47:18.4858515,    -15,0000,    -51,0000,    990,0000,      6,0000,    -10,0000,    -40,0000,
12:47:18.4858515,    -14,0000,    -56,0000,    999,0000,     74,0000,     80,0000,     30,0000,
12:47:18.4858515,    -20,0000,    -49,0000,    992,0000,    -90,0000,    -20,0000,     60,0000,
12:47:18.4958515,    -16,0000,    -51,0000,    989,0000,      6,0000,     -2,0000,    -82,0000,
12:47:18.4958515,    -10,0000,    -43,0000,    993,0000,     36,0000,    -34,0000,     68,0000,
12:47:18.4958515,    -17,0000,    -52,0000,   1007,0000,     -4,0000,     42,0000,    -64,0000,
12:47:18.4958515,    -13,0000,    -52,0000,    992,0000,    -10,0000,    -60,0000,    100,0000,
12:47:18.4958515,    -12,0000,    -56,0000,   1001,0000,      0,0000,     40,0000,      2,0000,
12:47:18.4958515,    -12,0000,    -52,0000,   1000,0000,     22,0000,    -34,0000,   -146,0000,
12:47:18.4958515,    -24,0000,    -49,0000,    993,0000,    -60,0000,    -16,0000,    114,0000,
12:47:18.4958515,    -14,0000,    -56,0000,    998,0000,     68,0000,     44,0000,    -40,0000,
12:47:18.4958515,    -18,0000,    -47,0000,    997,0000,    -40,0000,    -48,0000,     34,0000,
12:47:18.4958515,    -14,0000,    -55,0000,    995,0000,     40,0000,     36,0000,     42,0000,
12:47:18.4958515,     -6,0000,    -49,0000,   1005,0000,    -28,0000,    -26,0000,   -104,0000,
12:47:18.4958515,    -14,0000,    -49,0000,   1001,0000,    -28,0000,      4,0000,     98,0000,
12:47:18.4958515,    -12,0000,    -58,0000,    995,0000,     32,0000,     30,0000,    -22,0000,
12:47:18.4958515,    -21,0000,    -45,0000,    998,0000,     28,0000,      0,0000,    -54,0000,
12:47:18.4958515,     -9,0000,    -55,0000,   1003,0000,    -22,0000,    -52,0000,      0,0000,
12:47:18.4958515,    -10,0000,    -54,0000,    996,0000,     -4,0000,     46,0000,     42,0000,
12:47:18.4958515,    -16,0000,    -49,0000,    998,0000,    -14,0000,    -46,0000,    -24,0000,
12:47:18.4958515,    -12,0000,    -48,0000,    992,0000,      8,0000,     42,0000,      0,0000,
12:47:18.4958515,    -17,0000,    -46,0000,    990,0000,    -44,0000,    -32,0000,     -4,0000,
12:47:18.4958515,    -17,0000,    -44,0000,    989,0000,     62,0000,     76,0000,     28,0000,
12:47:18.4958515,    -21,0000,    -49,0000,   1000,0000,    -34,0000,   -108,0000,     54,0000,
12:47:18.4958515,    -17,0000,    -61,0000,    998,0000,     16,0000,     46,0000,    -64,0000,
12:47:18.4958515,    -17,0000,    -49,0000,    995,0000,     64,0000,     -4,0000,     40,0000,
12:47:18.4958515,    -17,0000,    -54,0000,    989,0000,    -58,0000,    -24,0000,    -92,0000,
12:47:18.4958515,    -22,0000,    -55,0000,    995,0000,    -22,0000,    -32,0000,     74,0000,
12:47:18.4958515,    -18,0000,    -44,0000,   1002,0000,     88,0000,     62,0000,    -32,0000,
12:47:18.4958515,     -8,0000,    -58,0000,    993,0000,    -80,0000,    -60,0000,     10,0000,
12:47:18.4958515,    -15,0000,    -51,0000,    993,0000,     46,0000,    108,0000,    -46,0000,
12:47:18.4958515,    -18,0000,    -50,0000,    998,0000,    -86,0000,    -66,0000,     62,0000,
12:47:18.4958515,    -18,0000,    -60,0000,    994,0000,     82,0000,     52,0000,    -30,0000,
12:47:18.4958515,    -12,0000,    -55,0000,   1003,0000,    -80,0000,    -66,0000,     -2,0000,
12:47:18.5058515,    -13,0000,    -50,0000,    999,0000,     58,0000,     34,0000,     60,0000,
12:47:18.5058515,    -16,0000,    -62,0000,    987,0000,    -24,0000,    -34,0000,     10,0000,
12:47:18.5058515,    -14,0000,    -47,0000,   1005,0000,     82,0000,     28,0000,     30,0000,
12:47:18.5058515,    -19,0000,    -56,0000,    992,0000,    -20,0000,    -54,0000,   -142,0000,
12:47:18.5058515,    -18,0000,    -56,0000,    999,0000,    -56,0000,     48,0000,     54,0000,
12:47:18.5058515,    -18,0000,    -55,0000,   1000,0000,     60,0000,      6,0000,      6,0000,
12:47:18.5058515,    -17,0000,    -50,0000,    995,0000,    -94,0000,    -40,0000,     60,0000,
12:47:18.5058515,    -13,0000,    -56,0000,    994,0000,     12,0000,     36,0000,    -74,0000,
12:47:18.5058515,    -14,0000,    -53,0000,    996,0000,     26,0000,    -54,0000,    -62,0000,
12:47:18.5058515,    -15,0000,    -57,0000,    993,0000,     -6,0000,     10,0000,    154,0000,
12:47:18.5058515,    -23,0000,    -61,0000,    992,0000,     12,0000,    -12,0000,   -116,0000,
12:47:18.5058515,    -15,0000,    -51,0000,    995,0000,     16,0000,      8,0000,     18,0000,
12:47:18.5058515,    -21,0000,    -54,0000,    992,0000,    -42,0000,      0,0000,     60,0000,
12:47:18.5058515,    -24,0000,    -57,0000,    994,0000,     18,0000,    -20,0000,    -36,0000,
12:47:18.5058515,    -15,0000,    -51,0000,    995,0000,    -38,0000,    -28,0000,     24,0000,
12:47:18.5058515,     -8,0000,    -51,0000,    997,0000,     16,0000,     40,0000,      8,0000,
12:47:18.5158515,    -14,0000,    -45,0000,    991,0000,    -14,0000,    -62,0000,    -52,0000,
12:47:18.5158515,    -16,0000,    -55,0000,    994,0000,     72,0000,     84,0000,     30,0000,
12:47:18.5158515,    -20,0000,    -50,0000,    995,0000,    -34,0000,    -54,0000,    -10,0000,
12:47:18.5158515,    -14,0000,    -51,0000,    993,0000,    -30,0000,    -80,0000,     36,0000,
12:47:18.5158515,    -12,0000,    -52,0000,    995,0000,     52,0000,    136,0000,   -100,0000,
12:47:18.5158515,    -15,0000,    -48,0000,    995,0000,     -2,0000,    -46,0000,     72,0000,
12:47:18.5158515,    -18,0000,    -52,0000,    996,0000,     -8,0000,    -40,0000,    -24,0000,
12:47:18.5158515,    -13,0000,    -59,0000,    992,0000,    -24,0000,     18,0000,     86,0000,
12:47:18.5158515,    -15,0000,    -50,0000,    992,0000,    106,0000,     58,0000,    -78,0000,
12:47:18.5158515,    -15,0000,    -53,0000,    997,0000,    -34,0000,      4,0000,    106,0000,
12:47:18.5158515,    -11,0000,    -56,0000,   1004,0000,   -106,0000,    -54,0000,    -52,0000,
12:47:18.5158515,    -15,0000,    -52,0000,   1007,0000,     48,0000,     42,0000,    -34,0000,
12:47:18.5158515,    -15,0000,    -52,0000,   1007,0000,    -56,0000,    -60,0000,     66,0000,
12:47:18.5158515,    -21,0000,    -55,0000,    996,0000,     68,0000,    -12,0000,    -20,0000,
12:47:18.5158515,    -14,0000,    -58,0000,    990,0000,      8,0000,     42,0000,     86,0000,
12:47:18.5158515,    -17,0000,    -56,0000,    990,0000,    -44,0000,    -54,0000,   -100,0000,
12:47:18.5158515,    -10,0000,    -55,0000,    993,0000,    102,0000,     42,0000,     16,0000,
12:47:18.5158515,    -10,0000,    -51,0000,    997,0000,    -66,0000,    -30,0000,    -12,0000,
12:47:18.5158515,    -16,0000,    -50,0000,    997,0000,      0,0000,     36,0000,    -24,0000,
12:47:18.5158515,    -12,0000,    -50,0000,    993,0000,     62,0000,    -66,0000,     40,0000,
12:47:18.5158515,    -17,0000,    -58,0000,    992,0000,    -48,0000,     -6,0000,     58,0000,
12:47:18.5158515,    -10,0000,    -55,0000,   1000,0000,    -20,0000,     76,0000,   -104,0000,
12:47:18.5158515,    -18,0000,    -52,0000,   1001,0000,     64,0000,    -68,0000,     24,0000,
12:47:18.5158515,    -11,0000,    -56,0000,    998,0000,    -66,0000,     14,0000,    -26,0000,
12:47:18.5158515,    -22,0000,    -53,0000,    990,0000,     52,0000,    -48,0000,    -16,0000,
12:47:18.5158515,    -21,0000,    -56,0000,    998,0000,    -70,0000,     44,0000,     44,0000,
12:47:18.5158515,    -17,0000,    -58,0000,    991,0000,     20,0000,    -20,0000,     12,0000,
12:47:18.5158515,    -15,0000,    -52,0000,   1003,0000,      0,0000,     -6,0000,     38,0000,
12:47:18.5258515,    -17,0000,    -57,0000,    990,0000,     12,0000,     42,0000,    -36,0000,
12:47:18.5258515,     -8,0000,    -53,0000,    995,0000,     22,0000,     24,0000,      4,0000,
12:47:18.5258515,    -14,0000,    -54,0000,   1000,0000,    -54,0000,    -40,0000,     34,0000,
12:47:18.5258515,    -11,0000,    -48,0000,    997,0000,     72,0000,    -38,0000,    -36,0000,
12:47:18.5258515,    -18,0000,    -51,0000,   1001,0000,    -90,0000,     44,0000,    -64,0000,
12:47:18.5258515,    -16,0000,    -56,0000,   1008,0000,     92,0000,     16,0000,    104,0000,
12:47:18.5258515,    -11,0000,    -56,0000,    998,0000,   -106,0000,    -36,0000,    -48,0000,
12:47:18.5358515,    -19,0000,    -49,0000,    986,0000,    -28,0000,     18,0000,    -20,0000,
12:47:18.5358515,    -13,0000,    -46,0000,    996,0000,     88,0000,    -24,0000,     18,0000,
12:47:18.5358515,    -11,0000,    -61,0000,    994,0000,    -60,0000,     22,0000,      6,0000,
12:47:18.5358515,    -12,0000,    -51,0000,    995,0000,     40,0000,     78,0000,    -60,0000,
12:47:18.5358515,    -20,0000,    -59,0000,    994,0000,    -50,0000,   -106,0000,     86,0000,
12:47:18.5358515,    -17,0000,    -49,0000,   1000,0000,     22,0000,     68,0000,    -30,0000,
12:47:18.5358515,     -8,0000,    -51,0000,    989,0000,    -42,0000,    -24,0000,    -14,0000,
12:47:18.5358515,    -16,0000,    -51,0000,   1002,0000,     22,0000,     14,0000,    -14,0000,
12:47:18.5358515,    -20,0000,    -47,0000,   1006,0000,     42,0000,      0,0000,     32,0000,
12:47:18.5358515,    -16,0000,    -54,0000,    997,0000,    -32,0000,     22,0000,      6,0000,
12:47:18.5358515,    -21,0000,    -58,0000,   1010,0000,     36,0000,     24,0000,    -18,0000,
12:47:18.5358515,     -6,0000,    -61,0000,    999,0000,     -6,0000,    -34,0000,    -20,0000,
12:47:18.5358515,    -22,0000,    -55,0000,   1001,0000,    -24,0000,    -10,0000,    -24,0000,
12:47:18.5358515,    -13,0000,    -56,0000,    997,0000,    -10,0000,      8,0000,     14,0000,
12:47:18.5358515,    -10,0000,    -54,0000,    994,0000,     26,0000,     14,0000,     44,0000,
12:47:18.5358515,    -14,0000,    -48,0000,    997,0000,    -30,0000,    -46,0000,     10,0000,
12:47:18.5358515,    -23,0000,    -53,0000,    994,0000,     22,0000,     -4,0000,    -54,0000,
12:47:18.5458516,    -20,0000,    -64,0000,    991,0000,     12,0000,     28,0000,     20,0000,
12:47:18.5458516,    -22,0000,    -54,0000,    980,0000,     36,0000,      6,0000,     38,0000,
12:47:18.5458516,    -20,0000,    -49,0000,    986,0000,    -38,0000,     -6,0000,    -24,0000,
12:47:18.5458516,    -13,0000,    -61,0000,    994,0000,    -20,0000,     48,0000,     56,0000,
12:47:18.5458516,    -20,0000,    -56,0000,    990,0000,     58,0000,    -54,0000,    -50,0000,
12:47:18.5458516,     -6,0000,    -56,0000,   1005,0000,     10,0000,     36,0000,    -54,0000,
12:47:18.5458516,    -15,0000,    -50,0000,    994,0000,    -60,0000,    -12,0000,    146,0000,
12:47:18.5458516,    -12,0000,    -59,0000,   1002,0000,     46,0000,     10,0000,    -82,0000,
12:47:18.5458516,    -14,0000,    -52,0000,    994,0000,    -34,0000,     76,0000,      0,0000,
12:47:18.5458516,    -17,0000,    -54,0000,    996,0000,    -12,0000,    -92,0000,     22,0000,
12:47:18.5458516,     -8,0000,    -59,0000,    988,0000,     82,0000,     70,0000,    -62,0000,
12:47:18.5458516,    -19,0000,    -56,0000,   1004,0000,    -46,0000,     18,0000,     40,0000,
12:47:18.5458516,    -16,0000,    -51,0000,    992,0000,     38,0000,    -26,0000,     20,0000,
12:47:18.5458516,    -12,0000,    -58,0000,    997,0000,    -10,0000,     34,0000,   -104,0000,
12:47:18.5458516,    -18,0000,    -57,0000,   1003,0000,    -76,0000,    -68,0000,    150,0000,
12:47:18.5458516,    -16,0000,    -51,0000,    996,0000,     58,0000,     84,0000,    -66,0000,
12:47:18.5458516,    -12,0000,    -53,0000,    997,0000,     60,0000,    -78,0000,     48,0000,
12:47:18.5458516,    -19,0000,    -61,0000,    995,0000,    -94,0000,     62,0000,     -2,0000,
12:47:18.5558516,    -28,0000,    -54,0000,   1003,0000,     52,0000,    -66,0000,    -14,0000,
12:47:18.5558516,    -17,0000,    -52,0000,   1003,0000,     32,0000,    122,0000,    -36,0000,
12:47:18.5558516,    -18,0000,    -60,0000,    990,0000,    -58,0000,   -146,0000,      8,0000,
12:47:18.5558516,    -20,0000,    -53,0000,    997,0000,      8,0000,     90,0000,      2,0000,
12:47:18.5558516,    -11,0000,    -58,0000,    992,0000,    -30,0000,    -34,0000,    -36,0000,
12:47:18.5558516,    -21,0000,    -59,0000,    989,0000,     56,0000,     68,0000,      0,0000,
12:47:18.5558516,    -11,0000,    -50,0000,   1000,0000,    -14,0000,    -36,0000,     30,0000,
12:47:18.5558516,    -15,0000,    -49,0000,    999,0000,    -54,0000,    -30,0000,     40,0000,
12:47:18.5558516,    -18,0000,    -54,0000,    995,0000,     26,0000,     36,0000,    -18,0000,
12:47:18.5558516,    -13,0000,    -57,0000,    996,0000,      2,0000,     24,0000,     -6,0000,
12:47:18.5558516,    -17,0000,    -55,0000,   1001,0000,    -60,0000,    -40,0000,     -6,0000,
12:47:18.5558516,     -9,0000,    -48,0000,    996,0000,     12,0000,     88,0000,     26,0000,
12:47:18.5558516,    -14,0000,    -55,0000,   1006,0000,     62,0000,    -54,0000,    -64,0000,
12:47:18.5558516,    -10,0000,    -55,0000,   1004,0000,    -60,0000,    -12,0000,     60,0000,
12:47:18.5558516,    -16,0000,    -48,0000,   1004,0000,    -16,0000,     48,0000,    -28,0000,
12:47:18.5558516,    -13,0000,    -58,0000,    998,0000,     18,0000,     -2,0000,     46,0000,
12:47:18.5558516,    -15,0000,    -58,0000,    995,0000,     16,0000,      0,0000,     -4,0000,
12:47:18.5558516,    -12,0000,    -50,0000,    995,0000,    -40,0000,    -46,0000,    -72,0000,
12:47:18.5558516,    -15,0000,    -46,0000,   1006,0000,     52,0000,     48,0000,     -8,0000,
12:47:18.5558516,    -13,0000,    -53,0000,    998,0000,    -88,0000,    -54,0000,    128,0000,
12:47:18.5558516,    -14,0000,    -48,0000,    999,0000,    110,0000,     16,0000,   -112,0000,
12:47:18.5658516,    -10,0000,    -51,0000,   1002,0000,    -62,0000,    -26,0000,     46,0000,
12:47:18.5658516,    -14,0000,    -55,0000,    999,0000,    -28,0000,    -20,0000,    -30,0000,
12:47:18.5658516,    -19,0000,    -48,0000,    996,0000,      2,0000,     34,0000,    -20,0000,
12:47:18.5658516,    -18,0000,    -51,0000,   1003,0000,     18,0000,    -32,0000,     90,0000,
12:47:18.5658516,    -18,0000,    -49,0000,    999,0000,    -16,0000,     40,0000,    -32,0000,
12:47:18.5658516,    -13,0000,    -56,0000,    996,0000,     56,0000,     -8,0000,    -46,0000,
12:47:18.5658516,    -14,0000,    -44,0000,    994,0000,    -18,0000,    -62,0000,    116,0000,
12:47:18.5658516,    -14,0000,    -47,0000,    993,0000,    -54,0000,    -26,0000,    -62,0000,
12:47:18.5658516,    -16,0000,    -48,0000,    989,0000,     12,0000,     46,0000,     64,0000,
12:47:18.5658516,    -13,0000,    -47,0000,    994,0000,     12,0000,    -22,0000,   -154,0000,
12:47:18.5658516,    -20,0000,    -56,0000,    995,0000,     16,0000,      8,0000,    108,0000,
12:47:18.5658516,    -16,0000,    -52,0000,    990,0000,     34,0000,      8,0000,    -32,0000,
12:47:18.5658516,    -23,0000,    -57,0000,    998,0000,     14,0000,    -44,0000,     14,0000,
12:47:18.5658516,    -19,0000,    -57,0000,    996,0000,    -84,0000,     22,0000,    -16,0000,
12:47:18.5658516,    -16,0000,    -51,0000,    988,0000,     16,0000,     64,0000,      6,0000,
12:47:18.5658516,    -16,0000,    -52,0000,    992,0000,     34,0000,    -36,0000,     24,0000,
12:47:18.5658516,    -19,0000,    -45,0000,    999,0000,     -4,0000,    -14,0000,    -36,0000,
12:47:18.5658516,    -11,0000,    -55,0000,   1003,0000,    -24,0000,    -18,0000,     66,0000,
12:47:18.5658516,    -18,0000,    -50,0000,    995,0000,     46,0000,      0,0000,    -56,0000,
12:47:18.5658516,    -10,0000,    -62,0000,    998,0000,    -26,0000,     60,0000,     -6,0000,
12:47:18.5658516,    -16,0000,    -54,0000,    999,0000,    -70,0000,    -68,0000,    114,0000,
12:47:18.5658516,    -13,0000,    -54,0000,   1000,0000,     22,0000,     76,0000,   -154,0000,
